timestamp,roll,pitch,yaw,vel_x,vel_y,vel_z,ang_vel_x,ang_vel_y,ang_vel_z,accel_x,accel_y,accel_z,mag_x,mag_y,mag_z,gps_lat,gps_lon,imu_alt,ultrasonic_alt,pressure,status
0,-2.808,-87.995,-108.8,0,0,0,0.011925,-0.00045877,-0.0042092,0.013251,9.7701,-0.0076309,0.6798,-1.3683,0.15964,-1,-1,-1,4,0,0
29.567,-2.8162,-87.975,-108.87,0,0,0,-7.56E-05,0.010206,0.012127,-5.85E-05,9.74,0.20014,0.67743,-1.3446,0.14119,-1,-1,-1,4,85820,0
59.12,-2.8252,-87.966,-108.86,0,0,0,0.014505,0.011874,0.016228,0.16813,9.7526,0.45354,0.67597,-1.3461,0.14119,-1,-1,-1,4,85820,0
69.942,-2.843,-87.946,-108.85,0,0,0,0.0088302,0.0038352,0.01241,0.58771,9.7826,0.77868,0.67986,-1.3436,0.14021,-1,-1,-1,4,85815,0
99.495,-2.8419,-87.951,-108.86,0,0,0,-0.0017442,-0.00028741,0.0095623,0.6933,9.7363,0.86839,0.67687,-1.3431,0.13532,-1,-1,-1,4,85815,0
110.32,-2.8471,-87.976,-108.92,0,0,0,-0.012601,-0.01152,0.0085974,0.60559,9.7386,0.44205,0.67514,-1.3454,0.15937,-1,-1,-1,4,85832,0
139.89,-2.8437,-88.002,-108.96,0,0,0,-0.0033427,-0.0096044,0.0040961,0.50841,9.7756,-0.13237,0.67891,-1.3446,0.14315,-1,-1,-1,4,85832,0
169.56,-2.8384,-87.993,-108.93,0,0,0,0.038555,0.0056643,0.0054346,0.45475,9.7512,-0.23046,0.67751,-1.3486,0.14656,-1,-1,-1,4,85823,0
199.12,-2.839,-87.98,-108.91,0,0,0,0.046241,0.011044,0.0090661,0.46091,9.734,-0.18524,0.63164,-1.3061,0.16627,-1,-1,-1,4,85823,0
209.94,-2.8434,-87.949,-108.85,0,0,0,0.035706,0.011996,0.0067955,0.67509,9.7159,0.4147,0.63984,-1.3445,0.16099,-1,-1,-1,4,85711,0
239.55,-2.8339,-87.932,-108.87,0,0,0,0.0062196,0.0096835,0.0035739,0.73236,9.6637,0.86992,0.6769,-1.3451,0.13677,-1,-1,-1,4,85711,0
269.27,-2.8301,-87.929,-108.87,0,0,0,0.015184,0.0058286,-0.0012588,0.63057,9.7068,1.0109,0.67444,-1.3456,0.13481,-1,-1,-1,4,85828,0
280.11,-2.8081,-87.948,-108.8,0,0,0,0.050654,-0.012307,-0.0029299,0.29268,9.7368,0.62713,0.67643,-1.3456,0.13873,-1,-1,-1,4,85828,0
309.69,-2.8031,-87.965,-108.8,0,0,0,-0.0031959,-0.0064885,0.0048971,0.13843,9.7655,0.15562,0.67448,-1.3457,0.13972,-1,-1,-1,4,85827,0
339.26,-2.8045,-87.966,-108.83,0,0,0,-0.016068,-0.0044016,0.0053974,0.20258,9.8079,0.11385,0.67785,-1.345,0.13333,-1,-1,-1,4,85827,0
350.09,-2.8145,-87.971,-108.89,0,0,0,-0.0037264,0.0015493,0.012748,0.29946,9.7408,0.18756,0.67742,-1.3441,0.14071,-1,-1,-1,4,85825,0
379.66,-2.8294,-87.961,-108.86,0,0,0,0.023852,0.0027969,0.013799,0.65443,9.7486,0.43554,0.67692,-1.348,0.13576,-1,-1,-1,4,85825,0
409.21,-2.8308,-87.959,-108.86,0,0,0,0.015782,0.0013612,0.011542,0.77065,9.7351,0.48206,0.6759,-1.3432,0.13679,-1,-1,-1,4,85832,0
420.04,-2.8258,-87.968,-108.88,0,0,0,0.0018494,-0.0057982,0.0043532,0.77023,9.71,0.57059,0.67743,-1.3456,0.14069,-1,-1,-1,4,85832,0
449.6,-2.8236,-87.973,-108.89,0,0,0,-0.0024393,-0.0063097,0.0041241,0.65592,9.7238,0.39398,0.67539,-1.3446,0.13334,-1,-1,-1,4,85826,0
460.47,-2.8125,-87.984,-108.89,0,0,0,0.022892,-0.0052324,0.0036916,0.36784,9.7193,0.076263,0.67743,-1.3442,0.14267,-1,-1,-1,4,85826,0
490.09,-2.8076,-87.978,-108.81,0,0,0,0.049713,0.0013538,0.0049328,0.14937,9.761,0.075338,0.67739,-1.3451,0.13628,-1,-1,-1,4,85830,0
519.66,-2.8182,-87.96,-108.79,0,0,0,0.0098443,0.0074495,0.014117,0.3073,9.7538,0.22658,0.67789,-1.3446,0.13825,-1,-1,-1,4,85830,0
549.22,-2.8246,-87.955,-108.81,0,0,0,-0.0030093,0.0099417,0.013401,0.36168,9.8003,0.42951,0.67441,-1.3461,0.13186,-1,-1,-1,4,85800,0
560.04,-2.8319,-87.945,-108.86,0,0,0,-0.00022165,0.0046931,0.0082439,0.50278,9.8036,0.64554,0.67493,-1.3422,0.13975,-1,-1,-1,4,85800,0
589.61,-2.8394,-87.952,-108.84,0,0,0,0.034677,-0.0038715,0.010935,0.50583,9.8102,0.66926,0.6784,-1.3446,0.14021,-1,-1,-1,4,85801,0
619.15,-2.8403,-87.956,-108.82,0,0,0,0.032055,-0.0091637,0.010494,0.55445,9.7309,0.45314,0.67689,-1.3446,0.13579,-1,-1,-1,4,85801,0
629.98,-2.8445,-87.974,-108.88,0,0,0,-0.027112,-0.0035932,0.0088343,0.50536,9.7518,0.019134,0.67889,-1.3465,0.13872,-1,-1,-1,4,85813,0
659.53,-2.8473,-87.974,-108.92,0,0,0,-0.033134,-0.0022115,0.0092069,0.42547,9.7587,-0.024526,0.67787,-1.3451,0.13529,-1,-1,-1,4,85813,0
670.36,-2.8546,-87.965,-108.92,0,0,0,0.018478,0.0025407,0.012684,0.53077,9.7648,0.09563,0.67835,-1.3431,0.13678,-1,-1,-1,4,85828,0
699.96,-2.8545,-87.946,-108.84,0,0,0,0.042846,0.0080038,0.0066916,0.77754,9.7007,0.41797,0.67596,-1.3442,0.14268,-1,-1,-1,4,85828,0
729.51,-2.8517,-87.941,-108.83,0,0,0,0.038681,0.0049368,0.0049172,0.81724,9.7391,0.5975,0.67444,-1.3456,0.13481,-1,-1,-1,4,85842,0
740.34,-2.8415,-87.948,-108.85,0,0,0,0.017417,-0.0040689,-0.0015684,0.66295,9.7356,0.79538,0.68035,-1.344,0.14021,-1,-1,-1,4,85842,0
769.91,-2.8226,-87.962,-108.86,0,0,0,0.0098096,-0.0063518,-0.0011433,0.49338,9.7682,0.28185,0.67742,-1.3432,0.14268,-1,-1,-1,4,85837,0
799.46,-2.8181,-87.964,-108.86,0,0,0,0.016277,-0.0062713,-0.0025682,0.41792,9.766,0.18981,0.6749,-1.3432,0.13434,-1,-1,-1,4,85837,0
810.28,-2.8037,-87.963,-108.8,0,0,0,0.043826,-0.00013318,0.0027975,0.26409,9.7697,-0.032215,0.67789,-1.3431,0.14022,-1,-1,-1,4,85839,0
839.86,-2.8073,-87.948,-108.8,0,0,0,0.0086499,0.0081327,0.0072269,0.44659,9.7821,0.19659,0.67593,-1.3442,0.13875,-1,-1,-1,4,85839,0
869.41,-2.807,-87.943,-108.82,0,0,0,-0.0098839,0.0065837,0.0048617,0.42272,9.7333,0.34742,0.67393,-1.3447,0.13433,-1,-1,-1,4,85837,0
880.24,-2.8059,-87.936,-108.84,0,0,0,0.013344,0.0021391,0.005318,0.56145,9.724,0.61363,0.67693,-1.3451,0.13972,-1,-1,-1,4,85837,0
909.8,-2.795,-87.938,-108.76,0,0,0,0.043909,-0.0046393,0.0015954,0.59113,9.7303,0.38583,0.67641,-1.3432,0.13876,-1,-1,-1,4,85837,0
939.35,-2.7906,-87.94,-108.76,0,0,0,0.038248,-0.0039296,0.001921,0.48843,9.758,0.43296,0.67885,-1.345,0.13529,-1,-1,-1,4,85837,0
950.18,-2.7826,-87.943,-108.79,0,0,0,0.0020957,0.00037327,0.0020916,0.19354,9.8203,0.18145,0.67987,-1.345,0.13971,-1,-1,-1,4,85837,0
979.75,-2.7887,-87.932,-108.79,0,0,0,0.022598,0.004385,0.0099549,0.27628,9.8025,0.19481,0.67739,-1.3446,0.13776,-1,-1,-1,4,85837,0
1009.3,-2.7895,-87.926,-108.77,0,0,0,0.032884,0.0056233,0.0085862,0.2961,9.7652,0.24438,0.67687,-1.3446,0.13383,-1,-1,-1,4,85834,0
1020.1,-2.7882,-87.911,-108.75,0,0,0,0.025775,0.0059217,0.0087364,0.3861,9.7288,0.60069,0.67736,-1.3436,0.13531,-1,-1,-1,4,85834,0
1049.7,-2.5822,-87.587,-109,0,0,0,-0.32372,0.43037,-0.26313,0.2611,133.91,4.697,0.57272,-1.3219,0.14081,-1,-1,-1,4,86027,0
1079.3,-2.4444,-87.508,-109.38,0,0,0,-0.34197,-0.18661,-0.049085,8.5004,119.41,3.0443,0.60366,-1.303,0.11287,-1,-1,-1,4,86027,0
1090.1,-2.5282,-87.664,-111.61,0,0,0,-1.1275,-0.037824,-0.073853,3.361,106.03,2.5702,0.5951,-1.2705,0.12497,-1,-1,-1,4,86153,0
1119.7,-2.5466,-87.721,-114.11,0,0,0,-1.5844,0.022754,-0.069794,-0.45575,107.59,2.8514,0.58588,-1.2728,0.13383,-1,-1,-1,4,86153,0
1149.2,-2.5629,-87.779,-115.13,0,0,0,-1.5997,0.031048,-0.038074,-0.23492,107.3,1.9767,0.58001,-1.2759,0.13137,-1,-1,-1,4,85991,0
1160,-2.6557,-87.852,-117.12,0,0,0,-1.0246,0.016249,0.016598,-2.4757,105.97,1.5819,0.57423,-1.2762,0.14269,-1,-1,-1,4,85991,0
1189.7,-2.8948,-87.865,-117.4,0,0,0,-0.21583,0.019645,0.1501,0.80462,106.57,-0.78216,0.56494,-1.2746,0.14863,-1,-1,-1,4,85945,0
1219.2,-3.0035,-87.839,-117.22,0,0,0,0.02721,0.014148,0.15751,-1.3266,107.13,1.3692,0.57081,-1.2744,0.14664,-1,-1,-1,4,85945,0
1230,-3.0897,-87.953,-116.42,0,0,0,-0.023049,-0.18457,0.12267,3.2674,110.11,-0.51645,0.57285,-1.2745,0.15499,-1,-1,-1,4,85925,0
1259.6,-3.1316,-88.147,-116.97,0,0,0,-0.23138,-0.071853,-0.051859,3.2824,113.08,2.2531,0.57827,-1.2763,0.15593,-1,-1,-1,4,85925,0
1289.2,-3.0941,-88.172,-117.38,0,0,0,-0.68084,-0.067334,0.041476,-2.7619,112.69,1.5096,0.57048,-1.2799,0.15838,-1,-1,-1,4,85918,0
1300,-3.1841,-88.248,-118.27,0,0,0,-0.075041,-0.019423,-0.017171,-1.9303,112.21,1.9755,0.57285,-1.2754,0.15399,-1,-1,-1,4,85918,0
1329.6,-3.3005,-88.165,-119.02,0,0,0,-0.32292,0.053648,0.036397,0.50372,112.78,-0.22769,0.56841,-1.2726,0.15404,-1,-1,-1,4,85889,0
1359.1,-3.3184,-88.13,-119.04,0,0,0,-0.39983,0.058181,0.085334,-0.070628,113.71,3.1457,0.57083,-1.2706,0.15306,-1,-1,-1,4,85889,0
1369.9,-3.4089,-88.059,-120.17,0,0,0,-0.60806,0.101,0.030225,0.81548,116.26,2.5213,0.56599,-1.2756,0.155,-1,-1,-1,4,85881,0
1399.5,-3.4305,-87.982,-120.52,0,0,0,-0.61356,0.13344,0.034659,-0.80751,116.14,1.7835,0.56506,-1.282,0.15298,-1,-1,-1,4,85881,0
1410.3,-3.4772,-87.718,-121.68,0,0,0,-0.65658,0.19791,0.011345,-0.56284,116.86,1.8119,0.5587,-1.2789,0.15844,-1,-1,-1,4,85869,0
1439.9,-3.4684,-87.326,-122.82,0,0,0,-0.7075,0.26518,-0.035605,-0.44166,117.38,1.8226,0.55478,-1.2819,0.15597,-1,-1,-1,4,85869,0
1469.5,-3.4445,-87.174,-123.28,0,0,0,-0.73262,0.29224,-0.049119,0.13442,117.25,2.5771,0.55329,-1.2843,0.15055,-1,-1,-1,4,85850,0
1480.3,-3.3902,-86.615,-124.66,0,0,0,-0.77266,0.37338,-0.067112,0.29721,117.73,2.7755,0.54452,-1.2861,0.1545,-1,-1,-1,4,85850,0
1509.8,-3.3479,-85.95,-126.34,0,0,0,-0.9839,0.44888,-0.078812,0.16607,118.11,2.7183,0.53331,-1.2938,0.15349,-1,-1,-1,4,85834,0
1539.4,-3.344,-85.698,-126.97,0,0,0,-1.0059,0.46896,-0.080629,-0.33389,118.27,1.7951,0.52931,-1.2943,0.14466,-1,-1,-1,4,85834,0
1550.2,-3.3004,-84.863,-128.75,0,0,0,-1.0574,0.53995,-0.1022,-0.60664,118.55,1.9261,0.52055,-1.301,0.14415,-1,-1,-1,4,85766,0
1579.8,-3.2502,-83.916,-130.59,0,0,0,-1.0023,0.60404,-0.12767,-0.57267,119.34,2.4082,0.51367,-1.306,0.13774,-1,-1,-1,4,85766,0
1609.3,-3.222,-83.583,-131.15,0,0,0,-0.99209,0.62478,-0.14018,-0.10054,118.38,2.4972,0.50578,-1.3072,0.13089,-1,-1,-1,4,85753,0
1620.1,-3.1671,-82.522,-133.28,0,0,0,-1.2259,0.6899,-0.17118,0.036737,119.34,2.163,0.49454,-1.3148,0.12693,-1,-1,-1,4,85753,0
1649.7,-3.1758,-81.352,-135.52,0,0,0,-1.2397,0.7495,-0.16537,-0.41654,119.7,1.9442,0.48036,-1.3265,0.11854,-1,-1,-1,4,85772,0
1679.3,-3.1886,-80.945,-136.24,0,0,0,-1.2355,0.76139,-0.16797,-0.44559,120,1.8586,0.47486,-1.326,0.10628,-1,-1,-1,4,85772,0
1690.1,-3.2508,-79.677,-138.4,0,0,0,-1.2328,0.80655,-0.17683,-0.71891,120.18,1.9908,0.46316,-1.3352,0.10379,-1,-1,-1,4,85761,0
1719.7,-3.3291,-78.358,-140.56,0,0,0,-1.2243,0.83862,-0.18979,-0.65251,120,1.7738,0.45378,-1.3422,0.08903,-1,-1,-1,4,85761,0
1749.2,-3.3573,-77.907,-141.27,0,0,0,-1.2171,0.85063,-0.19027,-0.23017,120.24,1.4813,0.4478,-1.3437,0.077252,-1,-1,-1,4,85747,0
1760,-3.4611,-76.528,-143.38,0,0,0,-1.1887,0.87704,-0.20303,-0.27747,120.14,1.2213,0.43504,-1.3504,0.06791,-1,-1,-1,4,85747,0
1789.6,-3.5875,-75.112,-145.45,0,0,0,-1.1654,0.896,-0.2152,-0.37684,120.58,0.77314,0.42271,-1.3575,0.052177,-1,-1,-1,4,85720,0
1819.2,-3.6322,-74.641,-146.12,0,0,0,-1.1492,0.89406,-0.22029,-0.6829,120.65,0.64774,0.41876,-1.361,0.045285,-1,-1,-1,4,85720,0
1830,-3.7471,-73.241,-148.01,0,0,0,-1.0633,0.88025,-0.23037,-0.43937,121.19,0.074207,0.40793,-1.3685,0.031508,-1,-1,-1,4,85711,0
1859.6,-3.874,-71.907,-149.82,0,0,0,-1.006,0.84638,-0.23797,-0.53665,121.18,-0.38207,0.39804,-1.3745,0.016267,-1,-1,-1,4,85711,0
1889.1,-3.9152,-71.481,-150.41,0,0,0,-0.99742,0.82881,-0.23998,-0.30055,121.91,-0.95182,0.39358,-1.3765,0.007916,-1,-1,-1,4,85689,0
1900,-3.9827,-70.281,-151.97,0,0,0,-0.8041,0.75605,-0.2506,-0.52199,122.23,-1.4615,0.38611,-1.3786,-0.0063171,-1,-1,-1,4,85689,0
1929.5,-3.9686,-69.917,-152.38,0,0,0,-0.74138,0.71773,-0.25291,0.06161,122.54,-1.4363,0.38262,-1.3825,-0.017635,-1,-1,-1,4,85666,0
1940.3,-3.9327,-68.945,-153.51,0,0,0,-0.60555,0.61145,-0.24468,0.21618,122.61,-2.0964,0.37325,-1.3827,-0.023495,-1,-1,-1,4,85666,0
1969.9,-3.8323,-68.18,-154.4,0,0,0,-0.42914,0.47591,-0.237,0.32782,122.99,-2.6973,0.36533,-1.3819,-0.030825,-1,-1,-1,4,85627,0
1999.5,-3.7747,-67.98,-154.62,0,0,0,-0.36689,0.42835,-0.23048,-0.045854,123.34,-3.1195,0.36381,-1.3848,-0.040177,-1,-1,-1,4,85627,0
2010.3,-3.5301,-67.549,-155.1,0,0,0,-0.17265,0.27029,-0.22712,-0.076087,123.63,-3.466,0.35841,-1.3859,-0.04164,-1,-1,-1,4,85595,0
2039.8,-3.1311,-67.394,-155.12,0,0,0,0.090771,0.098339,-0.20738,0.43401,123.81,-3.584,0.35492,-1.3836,-0.045043,-1,-1,-1,4,85595,0
2069.4,-2.9704,-67.396,-155.03,0,0,0,0.17549,0.044137,-0.2007,0.75403,123.93,-4.0075,0.35202,-1.3885,-0.046058,-1,-1,-1,4,85569,0
2080.2,-2.4092,-67.601,-154.48,0,0,0,0.44472,-0.12963,-0.17331,1.0007,124.36,-3.8993,0.35299,-1.3866,-0.045553,-1,-1,-1,4,85569,0
2109.8,-1.7225,-68.097,-153.43,0,0,0,0.72548,-0.29642,-0.13117,1.3883,124.05,-3.5233,0.35206,-1.3852,-0.03817,-1,-1,-1,4,85517,0
2139.4,-1.4772,-68.314,-152.99,0,0,0,0.79656,-0.34661,-0.11409,1.7582,124.09,-3.3433,0.34763,-1.3858,-0.040123,-1,-1,-1,4,85517,0
2150.2,-0.75657,-69.119,-151.47,0,0,0,0.96321,-0.47379,-0.06309,2.2535,124.06,-2.8423,0.35067,-1.3844,-0.027352,-1,-1,-1,4,85489,0
2179.7,-0.089833,-70.1,-149.74,0,0,0,1.0786,-0.5645,-0.0026975,1.8324,123.94,-2.0193,0.35811,-1.3789,-0.011615,-1,-1,-1,4,85489,0
2209.3,0.1096,-70.453,-149.13,0,0,0,1.1081,-0.58569,0.012884,1.8346,123.87,-1.5443,0.36256,-1.3812,-0.01067,-1,-1,-1,4,85465,0
2220.1,0.68679,-71.55,-147.2,0,0,0,1.1822,-0.61745,0.05589,1.6734,123.73,-0.45243,0.36414,-1.376,0.0075431,-1,-1,-1,4,85465,0
2249.8,1.1764,-72.649,-145.16,0,0,0,1.2275,-0.60501,0.095344,1.7145,123.79,0.47226,0.3735,-1.3728,0.016376,-1,-1,-1,4,85414,0
2279.4,1.3251,-73.003,-144.46,0,0,0,1.2403,-0.59633,0.10823,1.7689,123.63,0.75574,0.34213,-1.353,0.040739,-1,-1,-1,4,85414,0
2290.2,1.713,-74.002,-142.31,0,0,0,1.2777,-0.53131,0.14368,1.4243,123.27,1.9276,0.38206,-1.3568,0.059707,-1,-1,-1,4,85246,0
2319.7,2.0438,-74.828,-140.06,0,0,0,1.3119,-0.42833,0.16412,1.5047,122.5,2.9996,0.39527,-1.3676,0.043844,-1,-1,-1,4,85246,1
2349,2.1457,-75.059,-139.32,0,0,0,1.3145,-0.38709,0.1725,1.6137,121.94,3.6462,0.3972,-1.367,0.039913,-1,-1,-1,4,85365,1
2359.6,2.4362,-75.554,-137.04,0,0,0,1.3315,-0.22045,0.17388,1.2469,120.41,4.1688,0.40757,-1.3643,0.051193,-1,-1,-1,4,85365,1
2388.8,2.5335,-75.652,-136.28,0,0,0,1.3342,-0.16819,0.17115,0.81693,120,4.1,0.41187,-1.3611,0.042363,-1,-1,-1,4,85325,1
2399.4,2.633,-75.724,-135.53,0,0,0,1.3334,-0.11345,0.16709,1.0743,119.67,4.4569,0.41436,-1.3621,0.045292,-1,-1,-1,4,85325,1
2409.9,2.9726,-75.723,-133.25,0,0,0,1.3418,0.070267,0.14098,0.34673,118.58,4.6114,0.42372,-1.3604,0.052148,-1,-1,-1,4,85286,1
2439.2,3.0986,-75.659,-132.5,0,0,0,1.3457,0.12793,0.12486,0.33951,118.34,4.5474,0.42416,-1.3632,0.04328,-1,-1,-1,4,85286,1
2449.8,3.566,-75.3,-130.25,0,0,0,1.3531,0.28423,0.068844,-0.21963,117.24,3.9261,0.43295,-1.3619,0.039819,-1,-1,-1,4,85244,1
2479,3.7527,-75.136,-129.5,0,0,0,1.3531,0.32711,0.042577,-0.30607,117.39,3.5783,0.43684,-1.3661,0.031418,-1,-1,-1,4,85244,1
2489.6,4.4291,-74.555,-127.28,0,0,0,1.3793,0.41787,-0.038898,-0.54472,116.38,2.7138,0.44023,-1.3679,0.024512,-1,-1,-1,4,85208,1
2518.9,4.6967,-74.356,-126.53,0,0,0,1.3738,0.4389,-0.065697,-0.12976,116.32,2.3879,0.44112,-1.3668,0.016169,-1,-1,-1,4,85208,1
2529.4,4.9745,-74.147,-125.79,0,0,0,1.388,0.45628,-0.08598,-0.10411,116.02,1.9249,0.43768,-1.3693,0.011739,-1,-1,-1,4,85188,1
2539.9,5.9213,-73.559,-123.48,0,0,0,1.4489,0.4631,-0.15271,-0.16466,115.27,0.68584,0.4411,-1.3712,0.0082722,-1,-1,-1,4,85188,1
2569.2,6.2733,-73.386,-122.7,0,0,0,1.4722,0.45315,-0.17836,-0.14895,115.03,-0.067567,0.44202,-1.3715,0.00089741,-1,-1,-1,4,85102,1
2579.8,7.4298,-73.011,-120.29,0,0,0,1.5379,0.37989,-0.23334,0.47288,114.45,-0.9985,0.44442,-1.3762,-0.01045,-1,-1,-1,4,85102,1
2609,7.8372,-72.938,-119.47,0,0,0,1.5653,0.35154,-0.24225,1.1026,114.13,-1.553,0.44237,-1.3757,-0.01977,-1,-1,-1,4,85066,1
2619.6,9.0956,-72.928,-116.85,0,0,0,1.6733,0.21641,-0.24328,2.5745,113.45,-2.1285,0.44289,-1.3791,-0.020293,-1,-1,-1,4,85066,1
2648.9,9.5107,-73.019,-115.92,0,0,0,1.7294,0.16379,-0.22964,2.401,113.19,-2.4411,0.44233,-1.3791,-0.027167,-1,-1,-1,4,85028,1
2659.4,9.9232,-73.14,-114.95,0,0,0,1.7691,0.13039,-0.21355,3.1374,113.08,-2.4446,0.44429,-1.38,-0.028656,-1,-1,-1,4,85028,1
2670,11.068,-73.755,-111.88,0,0,0,1.8906,-0.043199,-0.13123,3.8818,112.51,-2.7532,0.44578,-1.3795,-0.026692,-1,-1,-1,4,85026,1
2699.2,11.416,-74.051,-110.79,0,0,0,1.9275,-0.082279,-0.092546,4.097,112.23,-2.6111,0.44569,-1.3789,-0.035528,-1,-1,-1,4,85026,1
2709.8,12.281,-75.116,-107.38,0,0,0,2.0145,-0.21031,0.035603,4.3203,111.54,-3.1909,0.45257,-1.3763,-0.031602,-1,-1,-1,4,84976,1
2739.1,12.512,-75.536,-106.22,0,0,0,2.0167,-0.25421,0.072548,5.1799,111.22,-2.302,0.45254,-1.3782,-0.036531,-1,-1,-1,4,84976,1
2749.6,13.017,-76.933,-102.54,0,0,0,2.119,-0.32204,0.21998,4.5594,110.56,-1.5104,0.46581,-1.3768,-0.032149,-1,-1,-1,4,84931,1
2778.9,13.116,-77.424,-101.26,0,0,0,2.1353,-0.33969,0.26717,3.9986,110.17,-1.2543,0.46969,-1.3742,-0.034106,-1,-1,-1,4,84931,1
2789.5,13.187,-77.927,-99.974,0,0,0,2.1642,-0.34929,0.30144,3.9987,110.06,-0.11303,0.47265,-1.3761,-0.034134,-1,-1,-1,4,84909,1
2800,13.257,-79.391,-96.035,0,0,0,2.2036,-0.31665,0.38247,0.94365,109.42,1.2907,0.48486,-1.3703,-0.032657,-1,-1,-1,4,84909,1
2829.3,13.266,-79.858,-94.704,0,0,0,2.2314,-0.29422,0.38507,0.28053,109.14,2.91,0.48972,-1.3701,-0.037585,-1,-1,-1,4,84866,1
2839.9,13.384,-81.042,-90.713,0,0,0,2.2307,-0.14091,0.29794,-1.2212,108.55,3.4548,0.50491,-1.3672,-0.036636,-1,-1,-1,4,84866,1
2869.1,13.464,-81.353,-89.425,0,0,0,2.2095,-0.067991,0.23421,-1.3365,108.22,2.8867,0.50437,-1.3667,-0.041541,-1,-1,-1,4,84814,1
2879.7,13.789,-82.175,-85.684,0,0,0,2.1381,0.017607,0.11489,-2.2716,107.49,1.7847,0.51019,-1.3655,-0.046955,-1,-1,-1,4,84814,1
2909,13.953,-82.432,-84.472,0,0,0,2.1182,0.035824,0.052834,-2.1038,107.42,0.88901,0.51206,-1.3653,-0.056784,-1,-1,-1,4,84766,1
2919.5,14.605,-83.278,-80.766,0,0,0,2.1546,0.028561,-0.10287,-0.25883,106.64,1.1638,0.51741,-1.3646,-0.06171,-1,-1,-1,4,84766,1
2948.8,14.847,-83.582,-79.494,0,0,0,2.1786,0.044594,-0.1262,-0.28185,106.29,2.3482,0.51539,-1.3695,-0.074024,-1,-1,-1,4,84710,1
2959.4,15.082,-83.869,-78.208,0,0,0,2.1924,0.063571,-0.14171,0.34584,106.06,1.4592,0.51484,-1.367,-0.07793,-1,-1,-1,4,84710,1
2969.9,15.811,-84.783,-74.255,0,0,0,2.2564,0.07956,-0.19481,0.44805,105.43,0.69303,0.51728,-1.3693,-0.080907,-1,-1,-1,4,84657,1
2999.2,16.051,-85.1,-72.937,0,0,0,2.2498,0.069644,-0.20535,0.6124,105.17,1.1885,0.51817,-1.3677,-0.090229,-1,-1,-1,4,84657,1
3009.7,16.774,-86.109,-68.943,0,0,0,2.2901,0.060415,-0.23197,2.1937,104.56,-0.092282,0.51275,-1.3703,-0.096124,-1,-1,-1,4,84612,1
3039,16.983,-86.49,-67.561,0,0,0,2.3164,0.051395,-0.21935,2.8752,104.22,0.20209,0.51021,-1.3707,-0.10594,-1,-1,-1,4,84612,1
3049.6,17.48,-87.729,-63.301,0,0,0,2.4003,0.0060087,-0.15188,3.9818,103.28,-0.38347,0.50966,-1.3707,-0.11232,-1,-1,-1,4,84559,1
3078.8,17.58,-88.187,-61.835,0,0,0,2.4276,-0.011891,-0.11964,3.9895,102.94,-0.22294,0.5096,-1.3706,-0.1192,-1,-1,-1,4,84559,1
3089.4,17.649,-88.656,-60.356,0,0,0,2.453,-0.021475,-0.08253,4.3655,102.78,-0.33622,0.50909,-1.373,-0.12462,-1,-1,-1,4,84531,1
3099.9,17.625,-90.132,-55.822,0,0,0,2.5295,-0.050481,0.044956,4.3543,102.1,0.014074,0.51296,-1.3728,-0.13053,-1,-1,-1,4,84531,1
3129.2,17.547,-90.622,-54.294,0,0,0,2.5345,-0.053663,0.082071,4.7442,101.85,0.073571,0.5114,-1.3709,-0.13787,-1,-1,-1,4,84472,1
3139.7,17.112,-92.108,-49.653,0,0,0,2.6098,-0.051076,0.18928,3.878,101.12,0.59194,0.50889,-1.3704,-0.14326,-1,-1,-1,4,84472,1
3169,16.913,-92.591,-48.079,0,0,0,2.6267,-0.051339,0.21276,3.8837,100.83,0.4663,0.51272,-1.3701,-0.15408,-1,-1,-1,4,84418,1
3179.6,16.179,-93.963,-43.363,0,0,0,2.6662,-0.018754,0.27867,3.0578,99.9,0.54476,0.51611,-1.369,-0.15752,-1,-1,-1,4,84418,1
3208.8,15.89,-94.398,-41.781,0,0,0,2.686,-0.0036701,0.29287,2.6322,99.516,0.9531,0.51357,-1.369,-0.16684,-1,-1,-1,4,84353,1
3219.4,15.59,-94.819,-40.184,0,0,0,2.714,0.0044064,0.29595,1.6809,99.459,0.41882,0.51596,-1.3689,-0.17373,-1,-1,-1,4,84353,1
3229.9,14.709,-96.025,-35.367,0,0,0,2.7509,0.033383,0.2559,0.73501,98.689,0.34896,0.51876,-1.3618,-0.18203,-1,-1,-1,4,84299,1
3259.2,14.417,-96.399,-33.761,0,0,0,2.7586,0.039384,0.22893,0.34246,98.604,0.69274,0.51626,-1.3657,-0.19138,-1,-1,-1,4,84299,1
3269.8,13.613,-97.487,-28.908,0,0,0,2.7935,0.039792,0.12901,-0.4767,97.773,-0.29445,0.51614,-1.3627,-0.20167,-1,-1,-1,4,84239,1
3299.1,13.372,-97.855,-27.277,0,0,0,2.8098,0.030315,0.091129,-0.74551,97.477,-0.30623,0.51555,-1.3606,-0.21049,-1,-1,-1,4,84239,1
3309.7,12.692,-98.982,-22.296,0,0,0,2.8564,-0.005617,-0.0188,0.0042912,96.772,-0.44153,0.50664,-1.3618,-0.22078,-1,-1,-1,4,84179,1
3338.9,12.474,-99.366,-20.632,0,0,0,2.8741,-0.022008,-0.038072,0.40718,96.551,-0.74838,0.50606,-1.3612,-0.2306,-1,-1,-1,4,84179,1
3349.5,11.786,-100.55,-15.621,0,0,0,2.8878,-0.074174,-0.087936,0.9491,95.862,-0.65529,0.49473,-1.3634,-0.23892,-1,-1,-1,4,84119,1
3378.8,11.538,-100.95,-13.948,0,0,0,2.9052,-0.093899,-0.09482,0.52717,95.483,-0.98278,0.49226,-1.3659,-0.24336,-1,-1,-1,4,84119,1
3389.3,11.282,-101.36,-12.273,0,0,0,2.9002,-0.11735,-0.10566,1.6466,95.488,-0.39425,0.48781,-1.3636,-0.24529,-1,-1,-1,4,84086,1
3399.9,10.42,-102.56,-7.2847,0,0,0,2.9152,-0.13307,-0.084218,2.4205,94.677,1.6847,0.47944,-1.3633,-0.24869,-1,-1,-1,4,84086,1
3429.1,10.084,-102.91,-5.6228,0,0,0,2.9215,-0.11545,-0.064439,1.8726,94.419,1.4621,0.47344,-1.3605,-0.25797,-1,-1,-1,4,84028,1
3439.7,8.9847,-103.85,-0.62169,0,0,0,2.9515,-0.062247,-0.041789,1.4816,93.558,0.96354,0.46507,-1.3617,-0.26286,-1,-1,-1,4,84028,1
3468.9,8.6077,-104.13,1.0444,0,0,0,2.9682,-0.066686,-0.055037,1.0327,93.377,1.1233,0.46111,-1.3632,-0.26826,-1,-1,-1,4,83963,1
3479.5,7.4183,-104.88,6.0889,0,0,0,3.0172,-0.027767,-0.048138,2.17,92.509,1.1858,0.44834,-1.3616,-0.26918,-1,-1,-1,4,83963,1
3508.8,6.9962,-105.1,7.7858,0,0,0,3.0213,-0.012008,-0.044428,3.1263,92.178,1.8416,0.44382,-1.3602,-0.27898,-1,-1,-1,4,83901,1
3519.3,6.5592,-105.28,9.4738,0,0,0,3.0372,0.0036923,-0.028106,3.3655,91.895,1.1357,0.44088,-1.3622,-0.28144,-1,-1,-1,4,83901,1
3529.9,5.0867,-105.76,14.567,0,0,0,3.0887,0.021691,0.030622,3.0372,91.155,0.70081,0.42957,-1.3611,-0.28335,-1,-1,-1,4,83794,1
3559.2,4.5673,-105.89,16.27,0,0,0,3.1001,0.014523,0.061985,2.8304,90.845,1.194,0.42216,-1.3617,-0.28971,-1,-1,-1,4,83794,1
3569.7,2.9881,-106.13,21.386,0,0,0,3.1142,0.062521,0.066231,2.6611,90.274,0.89145,0.41428,-1.359,-0.29064,-1,-1,-1,4,83722,1
3599,2.4559,-106.16,23.082,0,0,0,3.1232,0.068012,0.067274,1.5907,90.147,0.66669,0.40641,-1.3626,-0.29752,-1,-1,-1,4,83722,1
3609.6,0.86887,-106.2,28.256,0,0,0,3.1532,0.057318,0.043755,1.2214,89.46,0.6244,0.39314,-1.3601,-0.29745,-1,-1,-1,4,83661,1
3638.8,0.37078,-106.19,29.977,0,0,0,3.1442,0.054081,0.020799,2.922,89.194,0.5131,0.38767,-1.3582,-0.3033,-1,-1,-1,4,83661,1
3649.4,-0.13683,-106.16,31.702,0,0,0,3.1659,0.060946,0.040646,4.0651,88.748,-0.1335,0.38518,-1.3553,-0.30474,-1,-1,-1,4,83624,1
3659.9,-1.7953,-106.05,36.855,0,0,0,3.1552,0.0027166,0.1077,4.0653,88.07,0.030044,0.37444,-1.3581,-0.30227,-1,-1,-1,4,83624,1
3689.2,-2.3888,-106,38.564,0,0,0,3.1659,-0.014494,0.14505,4.0921,87.76,-0.92451,0.3685,-1.3539,-0.30319,-1,-1,-1,4,83590,1
3699.7,-4.2088,-105.78,43.75,0,0,0,3.206,-0.051891,0.19187,2.8028,87.183,-0.060999,0.35676,-1.3533,-0.29921,-1,-1,-1,4,83590,1
3729,-4.8241,-105.68,45.505,0,0,0,3.2266,-0.053043,0.19736,2.9583,86.753,0.83791,0.35276,-1.3524,-0.30606,-1,-1,-1,4,83513,1
3739.6,-6.6616,-105.19,50.825,0,0,0,3.2717,-0.029107,0.20872,1.7832,86.279,0.49056,0.34503,-1.3547,-0.29574,-1,-1,-1,4,83513,1
3768.9,-7.2546,-104.98,52.623,0,0,0,3.2764,-0.027611,0.20088,0.75396,86.065,0.19015,0.33761,-1.3534,-0.3011,-1,-1,-1,4,83447,1
3779.4,-7.8214,-104.76,54.418,0,0,0,3.2695,-0.025058,0.17351,0.18692,85.765,0.51141,0.33717,-1.3559,-0.29916,-1,-1,-1,4,83447,1
3790,-9.3025,-103.99,59.853,0,0,0,3.2701,-0.032241,0.065135,0.033178,84.813,-0.05247,0.32938,-1.3518,-0.28829,-1,-1,-1,4,83377,1
3819.3,-9.7459,-103.71,61.697,0,0,0,3.2743,-0.042269,0.032822,0.49415,84.545,0.48337,0.31612,-1.3537,-0.29218,-1,-1,-1,4,83377,1
3829.8,-10.952,-102.77,67.257,0,0,0,3.2809,-0.034732,-0.038071,0.59749,83.711,-0.12809,0.30934,-1.3526,-0.28036,-1,-1,-1,4,83300,1
3859.1,-11.313,-102.43,69.134,0,0,0,3.2834,-0.039589,-0.0556,1.1184,83.326,0.51111,0.30491,-1.3527,-0.2828,-1,-1,-1,4,83300,1
3869.7,-12.327,-101.35,74.834,0,0,0,3.3226,-0.055554,-0.073081,1.9837,81.975,-0.058922,0.28984,-1.3509,-0.26602,-1,-1,-1,4,83231,1
3898.9,-12.648,-100.97,76.76,0,0,0,3.3274,-0.067265,-0.078947,2.6028,81.042,0.14322,0.2864,-1.3505,-0.2665,-1,-1,-1,4,83231,1
3909.5,-12.961,-100.59,78.688,0,0,0,3.3391,-0.070045,-0.064215,3.0643,80.125,0.1793,0.28098,-1.3472,-0.26448,-1,-1,-1,4,83189,1
3920,-13.969,-99.348,84.569,0,0,0,3.3897,-0.070835,0.0055064,3.4322,74.999,1.0721,0.27131,-1.3472,-0.24922,-1,-1,-1,4,83189,1
3949.3,-14.3,-98.892,86.543,0,0,0,3.3961,-0.054063,0.031869,3.777,72.906,1.5203,0.26934,-1.3453,-0.24772,-1,-1,-1,4,83116,1
3959.9,-15.275,-97.362,92.517,0,0,0,3.4189,-0.0049908,0.095363,3.6186,65.09,1.8834,0.26461,-1.3476,-0.23152,-1,-1,-1,4,83116,1
3989.2,-15.59,-96.8,94.522,0,0,0,3.432,0.02704,0.11582,3.2838,61.993,0.92915,0.26264,-1.3472,-0.2315,-1,-1,-1,4,83038,1
3999.7,-16.467,-95.016,100.63,0,0,0,3.4565,0.053992,0.16454,2.4654,55.461,1.4061,0.25932,-1.3459,-0.21724,-1,-1,-1,4,83038,1
4029,-16.727,-94.375,102.67,0,0,0,3.4655,0.074713,0.16495,2.0898,54.273,0.67799,0.25785,-1.347,-0.21822,-1,-1,-1,4,82955,1
4039.6,-17.301,-92.401,108.88,0,0,0,3.4814,0.077711,0.13393,1.5019,52.406,-0.11922,0.25556,-1.3492,-0.20252,-1,-1,-1,4,82955,1
4068.8,-17.433,-91.736,110.97,0,0,0,3.493,0.074502,0.12389,1.5226,52.529,-0.50835,0.25262,-1.3483,-0.20102,-1,-1,-1,4,82875,1
4079.4,-17.534,-91.072,113.06,0,0,0,3.4978,0.061866,0.10917,0.8551,52.344,-0.9413,0.25417,-1.3474,-0.19169,-1,-1,-1,4,82875,1
4089.9,-17.637,-89.176,119.35,0,0,0,3.5098,-0.006728,0.056514,0.91174,52.366,-1.1137,0.2504,-1.3457,-0.1725,-1,-1,-1,4,82803,1
4119.2,-17.599,-88.564,121.46,0,0,0,3.516,-0.024482,0.030891,0.72708,52.256,0.11945,0.2494,-1.3462,-0.17545,-1,-1,-1,4,82803,1
4129.7,-17.375,-86.743,127.81,0,0,0,3.5411,-0.052207,0.015859,0.72582,52.655,-0.6737,0.24468,-1.3451,-0.15332,-1,-1,-1,4,82719,1
4159,-17.246,-86.163,129.92,0,0,0,3.5366,-0.069508,0.020411,2.2119,52.712,-0.42228,0.24616,-1.3451,-0.15185,-1,-1,-1,4,82719,1
4169.6,-16.757,-84.466,136.26,0,0,0,3.5515,-0.092338,0.014907,2.4535,52.542,-0.58166,0.25076,-1.3427,-0.12827,-1,-1,-1,4,82640,1
4198.8,-16.559,-83.927,138.37,0,0,0,3.5603,-0.10579,0.015762,2.1132,52.158,0.2924,0.25027,-1.3432,-0.12926,-1,-1,-1,4,82640,1
4209.4,-16.347,-83.397,140.48,0,0,0,3.5524,-0.10342,0.026938,1.8888,51.127,1.1418,0.24885,-1.3472,-0.12782,-1,-1,-1,4,82602,1
4219.9,-15.617,-81.735,146.78,0,0,0,3.5695,-0.055056,0.029016,1.5463,47.531,1.0982,0.25244,-1.3424,-0.10519,-1,-1,-1,4,82602,1
4249.2,-15.317,-81.192,148.88,0,0,0,3.5791,-0.027062,0.025477,2.0085,46.074,1.6693,0.25437,-1.3414,-0.10765,-1,-1,-1,4,82521,1
4259.8,-14.321,-79.561,155.17,0,0,0,3.6008,-0.0045028,0.04399,1.943,41.603,0.91471,0.26092,-1.3385,-0.084561,-1,-1,-1,4,82521,1
4289.1,-13.96,-79.04,157.27,0,0,0,3.6239,0.009684,0.030659,1.5049,38.911,0.45752,0.26336,-1.3394,-0.087034,-1,-1,-1,4,82441,1
4299.6,-12.743,-77.581,163.56,0,0,0,3.6404,0.017642,0.02769,1.1976,29.256,0.89171,0.27624,-1.3343,-0.066901,-1,-1,-1,4,82441,1
4329,-12.286,-77.103,165.65,0,0,0,3.6472,0.023418,0.025769,1.9333,26.752,-0.018019,0.28214,-1.336,-0.066939,-1,-1,-1,4,82343,1
4339.5,-10.899,-75.857,171.88,0,0,0,3.6478,0.0080229,0.036594,1.183,17.945,0.44625,0.26712,-1.3198,-0.027444,-1,-1,-1,4,82343,1
4368.8,-10.39,-75.474,173.94,0,0,0,3.6618,-0.010692,0.041743,1.7766,15.18,0.058258,0.27775,-1.329,-0.0010436,-1,-1,-1,4,82063,1
4379.4,-9.8868,-75.122,176,0,0,0,3.6475,0.00062886,0.049502,1.8376,12.466,0.10829,0.30289,-1.3307,-0.043887,-1,-1,-1,4,82063,1
4389.9,-8.3039,-74.146,-177.91,0,0,0,3.6403,-0.0029955,0.042103,1.21,8.1715,-0.51287,0.31428,-1.3315,-0.031658,-1,-1,-1,4,82122,1
4419.2,-7.7499,-73.875,-175.9,0,0,0,3.609,-0.0090658,0.036896,1.0821,6.6152,-0.16673,0.32118,-1.3323,-0.029727,-1,-1,-1,4,82122,1
4429.7,-6.0376,-73.184,-169.95,0,0,0,3.6212,-0.0069397,0.042262,1.9713,2.0062,-0.068974,0.33754,-1.3359,-0.013613,-1,-1,-1,4,82082,1
4459,-5.4772,-72.981,-167.95,0,0,0,3.6136,-0.012311,0.071014,1.148,0.45503,-0.58018,0.34093,-1.3333,-0.016059,-1,-1,-1,4,82082,1
4469.6,-3.6488,-72.603,-161.95,0,0,0,3.6575,-0.05067,0.012966,1.6846,-3.9339,-0.42339,0.35675,-1.3339,-0.002373,-1,-1,-1,4,81988,1
4498.9,-3.0231,-72.537,-159.91,0,0,0,3.7097,-0.087313,0.03376,2.6297,-5.3026,-0.15726,0.35818,-1.3329,-0.0058072,-1,-1,-1,4,81988,1
4509.4,-1.2555,-72.387,-153.81,0,0,0,3.6785,-0.032863,0.077019,1.1654,-7.5527,-0.57923,0.37453,-1.3393,0.0048788,-1,-1,-1,4,81910,1
4538.7,-0.66801,-72.38,-151.82,0,0,0,3.6516,-0.057471,0.082949,0.89379,-7.6761,-1.1637,0.38489,-1.3459,0.0042901,-1,-1,-1,4,81910,1
4549.2,-0.080091,-72.426,-149.84,0,0,0,3.635,-0.079068,0.062496,0.5449,-6.6889,-0.4758,0.38539,-1.3435,0.0087302,-1,-1,-1,4,81844,1
4559.7,1.7455,-72.702,-143.84,0,0,0,3.6455,-0.089088,0.067005,1.2057,-5.2813,0.48172,0.40209,-1.3396,0.015085,-1,-1,-1,4,81844,1
4589,2.3013,-72.785,-141.9,0,0,0,3.5632,-0.040805,0.064139,1.542,-5.4972,0.50765,0.40992,-1.3422,0.010611,-1,-1,-1,4,81757,1
4599.6,3.9873,-72.99,-136.24,0,0,0,3.5114,0.036366,0.033711,0.033125,-6.3742,-0.059799,0.42116,-1.3355,0.013574,-1,-1,-1,4,81757,1
4628.8,4.5864,-73.122,-134.29,0,0,0,3.5358,0.016015,0.0081899,0.37335,-7.3525,0.12916,0.42648,-1.3353,0.005697,-1,-1,-1,4,81666,1
4639.4,5.2147,-73.307,-132.32,0,0,0,3.5893,-0.0058835,-0.028859,0.55412,-8.4426,-0.42644,0.43094,-1.3381,0.0071285,-1,-1,-1,4,81666,1
4649.9,7.0288,-73.825,-126.57,0,0,0,3.4669,0.06889,-0.040233,1.3391,-14.735,0.27878,0.44123,-1.3373,0.007587,-1,-1,-1,4,81568,1
4679.2,7.6112,-74.027,-124.66,0,0,0,3.5062,0.04542,-0.055437,1.4065,-16.891,0.089917,0.44508,-1.3385,-0.0027533,-1,-1,-1,4,81568,1
4689.7,9.2869,-74.806,-118.82,0,0,0,3.4991,0.063135,-0.028245,2.6748,-21.049,-0.13282,0.45879,-1.3362,-0.0018027,-1,-1,-1,4,81534,1
4719,9.8315,-75.075,-116.89,0,0,0,3.4591,0.081428,-0.049461,2.4356,-22.325,-0.75289,0.46114,-1.3335,-0.011121,-1,-1,-1,4,81534,1
4729.6,11.388,-76.04,-110.98,0,0,0,3.5265,0.051882,0.027947,5.5685,-21.217,-1.8731,0.47046,-1.3357,-0.01314,-1,-1,-1,4,81548,1
4758.9,11.787,-76.423,-109,0,0,0,3.4706,0.038974,0.070725,2.7997,-13.849,-1.3207,0.47826,-1.3378,-0.020557,-1,-1,-1,4,81548,1
4769.4,12.201,-76.813,-107.04,0,0,0,3.5043,0.042967,0.038934,2.3962,-12.545,-0.79709,0.47871,-1.3373,-0.024974,-1,-1,-1,4,81504,1
4780,13.356,-78.107,-100.97,0,0,0,3.5227,0.051027,0.089524,2.3086,-13.423,-0.34461,0.4929,-1.3382,-0.028967,-1,-1,-1,4,81504,1
4809.2,13.715,-78.542,-98.923,0,0,0,3.5214,0.049096,0.11006,2.3875,-13.262,-1.2288,0.49431,-1.3372,-0.035348,-1,-1,-1,4,81437,1
4819.8,14.698,-79.978,-92.724,0,0,0,3.5516,0.057607,0.078988,1.0898,-13.419,-0.93548,0.50801,-1.3406,-0.042798,-1,-1,-1,4,81437,1
4849.1,15.029,-80.484,-90.63,0,0,0,3.5955,0.05013,0.053126,0.91065,-13.572,-1.1474,0.50835,-1.3365,-0.055043,-1,-1,-1,4,81362,1
4859.6,16,-82.105,-84.313,0,0,0,3.5648,0.050198,-0.0043789,1.8773,-13.665,-1.2355,0.5176,-1.3376,-0.063438,-1,-1,-1,4,81362,1
4888.9,16.287,-82.65,-82.239,0,0,0,3.5618,0.050959,-0.020046,1.6317,-13.486,-1.3816,0.51802,-1.3395,-0.073771,-1,-1,-1,4,81271,1
4899.4,17.014,-84.447,-75.945,0,0,0,3.5555,-0.0053526,7.80E-05,2.4366,-13.905,-1.9342,0.52535,-1.3406,-0.078721,-1,-1,-1,4,81271,1
4928.7,17.189,-85.094,-73.824,0,0,0,3.5703,-0.02071,0.0059088,1.9467,-14.277,-1.0061,0.52228,-1.3411,-0.092957,-1,-1,-1,4,81185,1
4939.2,17.35,-85.749,-71.682,0,0,0,3.5834,-0.018487,0.0062665,2.1586,-14.104,-0.5335,0.52763,-1.3379,-0.094423,-1,-1,-1,4,81185,1
4949.8,17.695,-87.689,-65.246,0,0,0,3.5796,0.0030776,0.023315,3.2658,-14.486,-1.4494,0.53244,-1.3377,-0.10525,-1,-1,-1,4,81101,1
4979.1,17.743,-88.339,-63.112,0,0,0,3.5735,-0.0071747,0.033506,2.158,-14.282,-1.5687,0.52943,-1.343,-0.11805,-1,-1,-1,4,81101,1
4989.6,17.728,-90.322,-56.693,0,0,0,3.5651,0.0032784,0.05897,3.2954,-14.177,-0.77544,0.53425,-1.3404,-0.12492,-1,-1,-1,4,81015,1
5018.9,17.659,-90.959,-54.567,0,0,0,3.5643,-0.00045842,0.07678,2.8857,-14.215,-1.3243,0.53169,-1.3394,-0.13571,-1,-1,-1,4,81015,1
5029.5,17.553,-91.605,-52.437,0,0,0,3.5673,0.0010621,0.093615,3.0552,-14.146,-1.3345,0.53213,-1.3398,-0.14161,-1,-1,-1,4,80973,1
5040,17.078,-93.496,-46.059,0,0,0,3.5674,0.011387,0.12278,1.3135,-14.327,-0.11094,0.53501,-1.3401,-0.14899,-1,-1,-1,4,80973,1
5069.3,16.883,-94.098,-43.935,0,0,0,3.5784,0.022044,0.10485,1.5311,-14.189,0.19321,0.5329,-1.339,-0.16469,-1,-1,-1,4,80884,1
5079.8,16.324,-95.799,-37.552,0,0,0,3.5806,0.092338,0.027961,2.1324,-14,-0.65149,0.53131,-1.3384,-0.17696,-1,-1,-1,4,80884,1
5109.1,16.104,-96.295,-35.47,0,0,0,3.5269,0.11478,0.040597,3.9513,-13.692,-1.5477,0.52781,-1.3394,-0.18629,-1,-1,-1,4,80791,1
5119.7,15.147,-97.929,-29.215,0,0,0,3.5937,-0.0075678,0.11987,1.6947,-13.723,-3.3532,0.52816,-1.3358,-0.19804,-1,-1,-1,4,80791,1
5148.9,14.785,-98.524,-27.1,0,0,0,3.6077,-0.033246,0.11009,1.9277,-13.848,-1.6129,0.52125,-1.3379,-0.2054,-1,-1,-1,4,80700,1
5159.5,13.633,-100.15,-20.855,0,0,0,3.595,-0.058549,0.10603,1.8795,-13.786,-1.3638,0.51577,-1.34,-0.21719,-1,-1,-1,4,80700,1
5188.8,13.21,-100.67,-18.798,0,0,0,3.5998,-0.056275,0.092791,1.5038,-13.848,-1.6312,0.51371,-1.3384,-0.2265,-1,-1,-1,4,80608,1
5199.3,12.781,-101.17,-16.745,0,0,0,3.5861,-0.062114,0.092013,1.5532,-13.581,-1.5246,0.51223,-1.3404,-0.22995,-1,-1,-1,4,80608,1
5209.9,11.416,-102.58,-10.574,0,0,0,3.6118,-0.064906,0.052764,1.3578,-13.421,-1.5578,0.50327,-1.3367,-0.2402,-1,-1,-1,4,80513,1
5239.2,10.95,-103.01,-8.5388,0,0,0,3.6045,-0.065592,0.045852,1.4399,-13.711,-0.89961,0.50125,-1.3391,-0.24954,-1,-1,-1,4,80513,1
5249.7,9.4823,-104.18,-2.4809,0,0,0,3.5829,-0.05067,0.023529,1.5651,-13.668,-0.87062,0.49246,-1.3346,-0.23964,-1,-1,-1,4,80426,1
5279,8.9787,-104.52,-0.48307,0,0,0,3.5956,-0.033321,0.0057833,1.4061,-13.249,-0.5134,0.485,-1.338,-0.25586,-1,-1,-1,4,80426,1
5289.6,7.4105,-105.41,5.4968,0,0,0,3.5743,-0.033126,-0.0041021,2.2243,-13.457,-0.63533,0.47412,-1.3363,-0.26317,-1,-1,-1,4,80335,1
5318.9,6.8733,-105.67,7.4583,0,0,0,3.5644,-0.017548,0.0034086,2.636,-13.442,-0.97384,0.46869,-1.2724,-0.24883,-1,-1,-1,4,80335,1
5329.4,6.3179,-105.89,9.4134,0,0,0,3.5583,-0.018905,0.0091939,2.2676,-13.168,-1.3623,0.46375,-1.3376,-0.27247,-1,-1,-1,4,80283,1
5339.9,4.5539,-106.5,15.261,0,0,0,3.5647,-0.018285,0.036991,2.8845,-13.409,-0.69556,0.45602,-1.3874,-0.26256,-1,-1,-1,4,80283,1
5369.3,3.9476,-106.65,17.197,0,0,0,3.5479,-0.019624,0.059909,2.9542,-13.461,-1.0293,0.44844,-1.3384,-0.28519,-1,-1,-1,4,80194,1
5379.8,2.0553,-106.93,22.943,0,0,0,3.5417,0.0078336,0.090454,3.0126,-13.377,-0.64812,0.4347,-1.3359,-0.28315,-1,-1,-1,4,80194,1
5409.1,1.4157,-106.97,24.856,0,0,0,3.5348,0.025835,0.088827,1.4672,-13.321,-0.71876,0.43025,-1.3369,-0.28903,-1,-1,-1,4,80100,1
5419.7,-0.49568,-106.96,30.544,0,0,0,3.5269,0.021941,0.090144,1.9706,-13.222,-1.5615,0.418,-1.3378,-0.2885,-1,-1,-1,4,80100,1
5448.9,-1.1197,-106.93,32.466,0,0,0,3.5379,0.011304,0.082496,1.369,-13.266,-1.8436,0.40972,-1.3352,-0.27961,-1,-1,-1,4,80010,1
5459.5,-2.951,-106.75,38.248,0,0,0,3.5473,-0.01149,0.047963,1.2659,-13.03,-1.4577,0.39884,-1.3364,-0.29038,-1,-1,-1,4,80010,1
5488.8,-3.551,-106.66,40.173,0,0,0,3.5358,-0.0217,0.051627,2.4325,-13.258,-1.3308,0.39291,-1.3686,-0.27787,-1,-1,-1,4,79924,1
5499.3,-4.1526,-106.54,42.091,0,0,0,3.5353,-0.018371,0.052103,1.2276,-13.002,-1.1698,0.39096,-1.3386,-0.29676,-1,-1,-1,4,79924,1
5509.9,-5.8777,-106.09,47.913,0,0,0,3.5613,-0.037118,0.036762,3.349,-12.817,-1.2776,0.37236,-1.3363,-0.29028,-1,-1,-1,4,79829,1
5539.1,-6.4833,-105.9,49.886,0,0,0,3.5824,-0.04359,0.059851,2.987,-12.843,-0.92533,0.36936,-1.3353,-0.29468,-1,-1,-1,4,79829,1
5549.7,-8.3035,-105.21,55.759,0,0,0,3.5497,-0.024848,0.12236,3.7218,-12.879,-0.19708,0.35477,-1.3379,-0.28384,-1,-1,-1,4,79729,1
5579,-8.9115,-104.92,57.7,0,0,0,3.5683,-0.0068346,0.12673,3.0241,-13.176,-0.1165,0.35122,-1.3155,-0.27135,-1,-1,-1,4,79729,1
5589.5,-10.692,-103.82,63.562,0,0,0,3.5065,0.043972,0.18416,3.2769,-13.073,-0.56437,0.34105,-1.3344,-0.27885,-1,-1,-1,4,79640,1
5618.8,-11.267,-103.4,65.494,0,0,0,3.5224,0.073196,0.1737,2.6208,-12.859,-0.93495,0.34573,-1.3486,-0.26573,-1,-1,-1,4,79640,1
5629.3,-11.821,-102.95,67.455,0,0,0,3.4918,0.078963,0.19379,3.191,-12.838,-1.834,0.33174,-1.3386,-0.28278,-1,-1,-1,4,79590,1
5639.9,-13.43,-101.58,73.384,0,0,0,3.5264,0.020432,0.1883,2.0504,-12.839,-1.7956,0.32545,-1.3355,-0.26995,-1,-1,-1,4,79590,1
5669.2,-13.927,-101.11,75.399,0,0,0,3.5208,0.024392,0.19257,2.1043,-12.552,-1.1233,0.32154,-1.34,-0.27293,-1,-1,-1,4,79508,1
5679.7,-15.263,-99.548,81.464,0,0,0,3.5196,0.014853,0.14438,0.63655,-12.558,-1.3454,0.31478,-1.3389,-0.26012,-1,-1,-1,4,79508,1
5709,-15.648,-99.005,83.49,0,0,0,3.492,0.0038432,0.14495,1.3905,-12.403,-1.6641,0.3105,-1.3392,-0.24488,-1,-1,-1,4,79421,1
5719.6,-16.628,-97.333,89.542,0,0,0,3.4598,-0.0045039,0.078921,0.62102,-12.239,-1.3815,0.30559,-1.3398,-0.24683,-1,-1,-1,4,79421,1
5748.9,-16.886,-96.757,91.579,0,0,0,3.4556,-0.018914,0.059749,0.91233,-12.48,-1.6417,0.29823,-1.3366,-0.24285,-1,-1,-1,4,79329,1
5759.5,-17.517,-94.999,97.708,0,0,0,3.4589,-0.033718,0.0186,0.15235,-12.339,-1.0333,0.29241,-1.3354,-0.23495,-1,-1,-1,4,79329,1
5788.8,-17.669,-94.402,99.771,0,0,0,3.4487,-0.035665,0.0090281,0.53773,-12.257,-1.0577,0.29196,-1.3374,-0.23202,-1,-1,-1,4,79225,1
5799.4,-17.79,-93.796,101.82,0,0,0,3.4454,-0.032617,-0.016991,0.14314,-12.225,-0.97329,0.28412,-1.3386,-0.23249,-1,-1,-1,4,79225,1
5809.9,-17.922,-91.953,107.99,0,0,0,3.4377,-0.031465,-0.087549,1.8657,-12.151,-1.8129,0.27889,-1.338,-0.21331,-1,-1,-1,4,79112,1
5839.2,-17.909,-91.345,110.05,0,0,0,3.436,-0.044695,-0.090781,2.4314,-12.294,-2.0399,0.27694,-1.3371,-0.21133,-1,-1,-1,4,79112,1
5849.8,-17.98,-89.624,116.19,0,0,0,3.4436,-0.086286,-0.0056877,2.063,-12.195,-0.28685,0.27222,-1.3375,-0.19069,-1,-1,-1,4,79014,1
5879.1,-17.956,-89.026,118.26,0,0,0,3.4165,-0.077509,0.014354,4.1855,-12.252,-0.70249,0.26832,-1.3391,-0.19069,-1,-1,-1,4,79014,1
5889.6,-17.981,-87.206,124.32,0,0,0,3.4026,-0.052001,0.11882,1.5952,-11.872,-1.5665,0.26995,-1.3363,-0.16906,-1,-1,-1,4,78920,1
5918.9,-17.949,-86.61,126.39,0,0,0,3.4128,-0.061012,0.12836,2.377,-12.095,-0.47707,0.267,-1.3388,-0.173,-1,-1,-1,4,78920,1
5929.5,-17.752,-84.767,132.51,0,0,0,3.4052,-0.011431,0.14528,2.1391,-11.955,-0.21357,0.2677,-1.3386,-0.14942,-1,-1,-1,4,78832,1
5958.7,-17.643,-84.132,134.53,0,0,0,3.3806,0.013749,0.14057,2.1244,-11.984,-0.34697,0.27163,-1.3394,-0.14994,-1,-1,-1,4,78832,1
5969.3,-17.508,-83.498,136.53,0,0,0,3.3689,0.028118,0.13649,1.3843,-11.661,-1.09,0.26873,-1.3386,-0.14402,-1,-1,-1,4,78777,1
5979.8,-16.972,-81.674,142.52,0,0,0,3.3553,0.031211,0.14195,2.8194,-11.698,-0.9367,0.27622,-1.338,-0.12784,-1,-1,-1,4,78777,1
6009.1,-16.771,-81.068,144.51,0,0,0,3.366,0.037647,0.14469,0.36096,-11.559,-0.075828,0.27573,-1.3385,-0.12833,-1,-1,-1,4,78686,1
6019.7,-15.956,-79.28,150.49,0,0,0,3.3905,0.062527,0.092725,0.8021,-11.469,-0.36971,0.28032,-1.3396,-0.11019,-1,-1,-1,4,78686,1
6048.9,-15.604,-78.692,152.46,0,0,0,3.3656,0.079949,0.065761,0.4997,-11.484,-0.41195,0.28274,-1.337,-0.11066,-1,-1,-1,4,78593,1
6059.5,-14.396,-76.989,158.28,0,0,0,3.3679,0.095801,0.020571,1.5825,-11.402,-2.2328,0.28976,-1.3375,-0.093504,-1,-1,-1,4,78593,1
6088.8,-13.953,-76.483,160.22,0,0,0,3.3798,0.064763,0.016178,1.079,-11.237,-2.7023,0.28635,-1.3396,-0.094,-1,-1,-1,4,78501,1
6099.3,-13.488,-76.032,162.17,0,0,0,3.415,0.00755,0.0079485,1.6113,-11.206,-3.2927,0.29176,-1.3404,-0.093046,-1,-1,-1,4,78501,1
6109.9,-12.013,-74.83,167.95,0,0,0,3.3959,-0.030911,-0.018608,0.71718,-11.047,-2.9518,0.29832,-1.3399,-0.071456,-1,-1,-1,4,78407,1
6139.1,-11.475,-74.497,169.86,0,0,0,3.3928,-0.077268,-0.01121,0.33544,-11.185,-2.4538,0.29828,-1.3374,-0.07389,-1,-1,-1,4,78407,1
6149.7,-9.7793,-73.621,175.59,0,0,0,3.4587,-0.093552,-0.058714,-0.21053,-11.055,-2.2442,0.3063,-1.3393,-0.056746,-1,-1,-1,4,78317,1
6179,-9.1518,-73.374,177.51,0,0,0,3.4459,-0.11159,-0.078578,0.20113,-11.232,-3.0628,0.31073,-1.3387,-0.05332,-1,-1,-1,4,78317,1
6189.5,-7.265,-72.934,-176.84,0,0,0,3.4199,-0.21885,-0.086584,1.381,-11.172,-1.8697,0.31583,-1.3402,-0.034197,-1,-1,-1,4,78216,1
6218.8,-6.6465,-72.859,-174.99,0,0,0,3.4278,-0.22851,-0.090753,0.83064,-11.188,-1.1066,0.31873,-1.3372,-0.035164,-1,-1,-1,4,78216,1
6229.4,-6.018,-72.791,-173.12,0,0,0,3.4264,-0.23075,-0.080832,1.5235,-11.511,-1.466,0.31583,-1.3374,-0.030733,-1,-1,-1,4,78163,1
6239.9,-4.1619,-72.653,-167.58,0,0,0,3.4039,-0.19669,-0.086714,2.1465,-11.527,-0.33672,0.3302,-1.3381,-0.014095,-1,-1,-1,4,78163,1
6269.2,-3.533,-72.63,-165.75,0,0,0,3.3819,-0.19235,-0.072605,2.7854,-11.538,-0.09718,0.33362,-1.3375,-0.015085,-1,-1,-1,4,78060,1
6279.7,-1.9669,-72.584,-160.35,0,0,0,3.2936,-0.12066,0.05643,1.4587,-11.397,1.175,0.34947,-1.3342,0.005511,-1,-1,-1,4,78060,1
6309,-1.4321,-72.571,-158.55,0,0,0,3.2965,-0.091794,0.047462,2.8028,-11.487,0.74657,0.35042,-1.3347,0.0020657,-1,-1,-1,4,77976,1
6319.6,0.12939,-72.485,-153.19,0,0,0,3.2469,0.012978,0.088315,1.9827,-11.459,2.5545,0.3681,-1.3312,0.008904,-1,-1,-1,4,77976,1
6348.8,0.612,-72.44,-151.42,0,0,0,3.2236,0.065806,0.11363,2.7399,-11.454,2.1089,0.37255,-1.3331,0.010835,-1,-1,-1,4,77898,1
6359.4,2.1361,-72.24,-146.13,0,0,0,3.2135,0.16236,0.072255,0.31003,-11.187,0.8357,0.39071,-1.3321,0.013231,-1,-1,-1,4,77898,1
6388.7,2.6855,-72.201,-144.38,0,0,0,3.2093,0.18164,0.049803,1.1453,-11.195,0.46862,0.39071,-1.3345,0.010262,-1,-1,-1,4,77812,1
6399.2,3.2468,-72.167,-142.64,0,0,0,3.2014,0.19786,0.024303,0.58455,-11.204,0.094432,0.39415,-1.3373,0.0082595,-1,-1,-1,4,77812,1
6409.8,4.9737,-72.178,-137.45,0,0,0,3.1922,0.20265,-0.02127,1.2934,-11.077,-0.88376,0.40937,-1.3388,0.0081878,-1,-1,-1,4,77720,1
6439,5.563,-72.226,-135.71,0,0,0,3.1993,0.19403,-0.038736,1.4694,-10.995,-1.2265,0.36903,-1.3156,0.021317,-1,-1,-1,4,77720,1
6449.6,7.2999,-72.621,-130.37,0,0,0,3.2572,0.10868,-0.011966,1.4632,-11.214,-2.7494,0.38225,-1.3361,0.049083,-1,-1,-1,4,77650,1
6478.8,7.8537,-72.823,-128.56,0,0,0,3.2703,0.089213,-0.0008155,1.0325,-11.074,-2.3647,0.38514,-1.335,0.044661,-1,-1,-1,4,77650,1
6489.4,8.4111,-73.05,-126.76,0,0,0,3.275,0.068096,-0.018219,1.1799,-10.923,-1.8285,0.43228,-1.3369,-0.0061283,-1,-1,-1,4,77269,1
6499.9,10.098,-73.951,-121.29,0,0,0,3.2982,-0.011333,-0.019006,2.0479,-10.965,-2.3737,0.44308,-1.3366,-0.0042024,-1,-1,-1,4,77269,1
6529.2,10.606,-74.318,-119.44,0,0,0,3.2936,-0.040854,0.0019177,2.8565,-10.795,-2.1438,0.4406,-1.3362,-0.0071356,-1,-1,-1,4,77505,1
6539.7,12.011,-75.559,-113.84,0,0,0,3.3205,-0.080432,0.04868,2.5571,-11.064,-1.4844,0.45628,-1.3366,-0.009165,-1,-1,-1,4,77505,1
6569,12.431,-76.019,-111.95,0,0,0,3.3013,-0.090797,0.071266,2.4493,-10.912,-1.1195,0.45921,-1.3385,-0.01214,-1,-1,-1,4,77419,1
6579.6,13.559,-77.438,-106.28,0,0,0,3.3084,-0.071419,0.1023,1.9926,-10.792,-0.037553,0.47488,-1.336,-0.012669,-1,-1,-1,4,77419,1
6608.9,13.895,-77.917,-104.38,0,0,0,3.2898,-0.061041,0.11962,2.3584,-10.792,0.13864,0.47728,-1.3383,-0.021049,-1,-1,-1,4,77324,1
6619.4,14.762,-79.342,-98.657,0,0,0,3.3045,0.00079278,0.12743,0.77508,-10.812,0.48867,0.49195,-1.3369,-0.024039,-1,-1,-1,4,77324,1
6648.7,15.051,-79.814,-96.727,0,0,0,3.2925,0.023354,0.12184,0.73134,-10.777,0.19968,0.48989,-1.3368,-0.035328,-1,-1,-1,4,77243,1
6659.2,15.326,-80.276,-94.823,0,0,0,3.2763,0.043685,0.097119,0.58588,-10.712,0.32774,0.49727,-1.3371,-0.032903,-1,-1,-1,4,77243,1
6669.8,16.153,-81.665,-89.14,0,0,0,3.2494,0.086626,0.044083,0.96925,-10.752,-0.45388,0.50552,-1.3372,-0.042759,-1,-1,-1,4,77164,1
6699.1,16.405,-82.14,-87.234,0,0,0,3.2496,0.092985,0.030011,0.65848,-10.778,-0.44102,0.51284,-1.3399,-0.050178,-1,-1,-1,4,77164,1
6709.6,17.124,-83.637,-81.525,0,0,0,3.2253,0.085432,-0.014306,0.93262,-10.588,-1.0187,0.51516,-1.3358,-0.059974,-1,-1,-1,4,77076,1
6738.9,17.342,-84.167,-79.625,0,0,0,3.2227,0.064932,-0.020918,1.6149,-10.516,-1.5058,0.51708,-1.3376,-0.067365,-1,-1,-1,4,77076,1
6749.4,17.86,-85.887,-73.859,0,0,0,3.248,0.02478,-0.014412,1.3263,-10.692,-1.4625,0.52142,-1.3388,-0.077216,-1,-1,-1,4,76992,1
6778.7,17.992,-86.481,-71.909,0,0,0,3.2405,0.017451,-0.0082336,1.8777,-10.248,-1.7907,0.52233,-1.3402,-0.086073,-1,-1,-1,4,76992,1
6789.2,18.099,-87.086,-69.971,0,0,0,3.2493,-0.00077173,-0.0038883,1.7828,-10.476,-1.4457,0.52668,-1.3371,-0.089991,-1,-1,-1,4,76952,1
6799.8,18.272,-88.98,-64.133,0,0,0,3.2466,-0.029687,0.010379,1.9848,-10.349,-0.95723,0.52711,-1.3379,-0.097368,-1,-1,-1,4,76952,1
6829.1,18.286,-89.616,-62.186,0,0,0,3.2446,-0.040326,0.025683,2.4663,-10.489,-1.2292,0.52998,-1.3402,-0.1087,-1,-1,-1,4,76874,1
6839.6,18.111,-91.502,-56.368,0,0,0,3.2309,-0.027946,0.073673,2.203,-10.28,-0.59664,0.53332,-1.3342,-0.1116,-1,-1,-1,4,76874,1
6868.9,18.006,-92.112,-54.441,0,0,0,3.2308,-0.030397,0.079742,2.2562,-10.307,-0.90006,0.53575,-1.3389,-0.11951,-1,-1,-1,4,76794,1
6879.4,17.525,-93.889,-48.699,0,0,0,3.2026,-0.0075826,0.11519,2.0732,-10.191,-0.48486,0.53711,-1.3373,-0.13031,-1,-1,-1,4,76794,1
6908.7,17.326,-94.45,-46.807,0,0,0,3.2099,0.0030176,0.1157,1.8929,-10.169,-0.26034,0.53555,-1.3382,-0.14161,-1,-1,-1,4,76711,1
6919.2,17.105,-94.996,-44.919,0,0,0,3.1825,0.012692,0.13211,1.943,-10.23,-0.57309,0.5355,-1.3391,-0.14849,-1,-1,-1,4,76711,1
6929.8,16.363,-96.551,-39.306,0,0,0,3.1791,0.038559,0.11117,1.1989,-10.188,-0.23337,0.53049,-1.3357,-0.15679,-1,-1,-1,4,76624,1
6959.1,16.1,-97.042,-37.446,0,0,0,3.1768,0.043004,0.10293,0.81939,-10.127,-0.16062,0.53237,-1.3361,-0.16614,-1,-1,-1,4,76624,1
6969.6,15.255,-98.438,-31.871,0,0,0,3.1816,0.070529,0.070565,0.42219,-10.149,-0.11943,0.53133,-1.3365,-0.1735,-1,-1,-1,4,76540,1
6998.9,14.963,-98.871,-30.026,0,0,0,3.175,0.074932,0.054021,0.41473,-10.132,-0.18272,0.53317,-1.3358,-0.18627,-1,-1,-1,4,76540,1
7009.4,14.111,-100.09,-24.542,0,0,0,3.1496,0.090929,-0.019767,0.15551,-10.077,-0.42737,0.52524,-1.3374,-0.19657,-1,-1,-1,4,76456,1
7038.7,13.835,-100.48,-22.724,0,0,0,3.1453,0.089974,-0.040747,0.49425,-9.9577,-0.58481,0.52124,-1.3389,-0.20738,-1,-1,-1,4,76456,1
7049.2,13.554,-100.86,-20.913,0,0,0,3.1374,0.09245,-0.061316,0.79726,-10.011,-0.62895,0.51821,-1.337,-0.21471,-1,-1,-1,4,76412,1
7059.8,12.633,-101.95,-15.51,0,0,0,3.1369,0.065103,-0.068566,1.0023,-9.916,-1.2834,0.51176,-1.339,-0.22601,-1,-1,-1,4,76412,1
7089.1,12.299,-102.33,-13.707,0,0,0,3.1453,0.04492,-0.069151,1.1947,-9.8764,-1.3995,0.50679,-1.3372,-0.23088,-1,-1,-1,4,76336,1
7099.6,11.245,-103.4,-8.3543,0,0,0,3.1348,0.0132,-0.075864,1.3833,-9.9362,-1.2018,0.49743,-1.3388,-0.23725,-1,-1,-1,4,76336,1
7128.9,10.871,-103.75,-6.569,0,0,0,3.1469,0.0081841,-0.079268,1.6881,-9.9147,-0.74564,0.49539,-1.3378,-0.24558,-1,-1,-1,4,76244,1
7139.4,9.6527,-104.69,-1.2655,0,0,0,3.1416,0.0018389,-0.048991,2.0948,-9.9032,-1.2499,0.4821,-1.3382,-0.25044,-1,-1,-1,4,76244,1
7168.7,9.2082,-104.98,0.49115,0,0,0,3.1468,-0.010683,-0.032052,2.6553,-9.8972,-1.4985,0.48008,-1.3392,-0.25879,-1,-1,-1,4,76167,1
7179.2,8.737,-105.28,2.2391,0,0,0,3.1423,-0.02435,-0.005919,2.6919,-10.024,-1.3004,0.47512,-1.3388,-0.26368,-1,-1,-1,4,76167,1
7189.8,7.2138,-106.06,7.4159,0,0,0,3.1353,-0.039886,0.049055,2.4227,-9.9002,-1.064,0.46728,-1.3405,-0.26563,-1,-1,-1,4,76083,1
7219.1,6.676,-106.3,9.13,0,0,0,3.1416,-0.039932,0.057495,1.9925,-9.7793,-1.2214,0.46181,-1.3381,-0.2705,-1,-1,-1,4,76083,1
7229.6,4.9769,-106.91,14.253,0,0,0,3.1439,-0.048786,0.11042,2.77,-9.6479,-0.95427,0.44957,-1.3385,-0.26948,-1,-1,-1,4,76000,1
7258.9,4.3793,-107.07,15.936,0,0,0,3.1408,-0.049058,0.12065,1.481,-9.7969,-1.0802,0.44998,-1.3389,-0.27881,-1,-1,-1,4,76000,1
7269.4,2.5682,-107.45,20.982,0,0,0,3.1333,-0.038386,0.13977,1.7931,-9.751,-1.087,0.43525,-1.3364,-0.27726,-1,-1,-1,4,75916,1
7298.7,1.9543,-107.53,22.657,0,0,0,3.1367,-0.036626,0.1414,1.2601,-9.5937,-0.22491,0.43424,-1.3388,-0.28317,-1,-1,-1,4,75916,1
7309.2,1.339,-107.6,24.329,0,0,0,3.127,-0.033057,0.14553,1.6419,-9.7038,-0.21512,0.43373,-1.3369,-0.28414,-1,-1,-1,4,75883,1
7319.8,-0.47004,-107.62,29.335,0,0,0,3.1299,0.0099995,0.11831,0.66962,-9.6272,-0.63209,0.42201,-1.3407,-0.28265,-1,-1,-1,4,75883,1
7349,-1.0574,-107.58,31.013,0,0,0,3.1131,0.011386,0.10773,0.79043,-9.5121,-0.75783,0.41894,-1.3358,-0.29046,-1,-1,-1,4,75796,1
7359.6,-2.7637,-107.39,36.042,0,0,0,3.1087,0.014006,0.071468,0.60073,-9.5692,-1.122,0.40572,-1.3362,-0.28844,-1,-1,-1,4,75796,1
7388.8,-3.3088,-107.29,37.725,0,0,0,3.1156,0.0074088,0.0493,0.40879,-9.5366,-1.038,0.40524,-1.3377,-0.28993,-1,-1,-1,4,75716,1
7399.4,-3.8363,-107.19,39.423,0,0,0,3.1162,-0.0029321,0.02779,0.69068,-9.42,-1.1582,0.39737,-1.3399,-0.29434,-1,-1,-1,4,75716,1
7409.9,-5.4071,-106.81,44.511,0,0,0,3.1094,-0.020831,0.016815,0.79262,-9.4463,-0.90265,0.3851,-1.3354,-0.28983,-1,-1,-1,4,75632,1
7439.2,-5.9137,-106.67,46.215,0,0,0,3.1173,-0.028156,0.007381,0.49787,-9.344,-0.88631,0.38413,-1.3378,-0.2923,-1,-1,-1,4,75632,1
7449.7,-7.3836,-106.11,51.359,0,0,0,3.1115,-0.030273,-0.011176,0.99608,-9.2889,-0.84725,0.36995,-1.3374,-0.28586,-1,-1,-1,4,75556,1
7479,-7.8615,-105.91,53.074,0,0,0,3.1089,-0.031238,-0.010748,1.0182,-9.3879,-0.67157,0.36552,-1.3385,-0.28929,-1,-1,-1,4,75556,1
7489.6,-9.2322,-105.18,58.235,0,0,0,3.1021,-0.034484,-0.021992,1.5411,-9.3196,-0.82896,0.35381,-1.3365,-0.28039,-1,-1,-1,4,75482,1
7518.8,-9.6799,-104.92,59.965,0,0,0,3.1014,-0.03583,-0.012427,1.4876,-9.3768,-0.43119,0.35031,-1.335,-0.28625,-1,-1,-1,4,75482,1
7529.4,-10.126,-104.64,61.694,0,0,0,3.0972,-0.027391,-0.011019,1.5833,-9.374,-0.56209,0.34446,-1.3372,-0.28429,-1,-1,-1,4,75433,1
7539.9,-11.435,-103.68,66.878,0,0,0,3.086,-0.028015,0.014113,1.6479,-9.2649,-0.67909,0.33626,-1.3386,-0.27101,-1,-1,-1,4,75433,1
7569.2,-11.855,-103.36,68.621,0,0,0,3.0946,-0.037158,0.019383,2.1456,-9.2842,-0.80688,0.32789,-1.3393,-0.2754,-1,-1,-1,4,75357,1
7579.7,-13.089,-102.25,73.841,0,0,0,3.0749,-0.011055,0.049113,1.6515,-9.1881,-0.16169,0.3221,-1.3386,-0.26358,-1,-1,-1,4,75357,1
7609,-13.493,-101.84,75.588,0,0,0,3.0697,0.0038577,0.063579,1.7916,-9.0759,-0.12745,0.31621,-1.3388,-0.26504,-1,-1,-1,4,75274,1
7619.6,-14.61,-100.51,80.815,0,0,0,3.0551,0.023144,0.074973,2.3335,-9.1097,-0.62341,0.30844,-1.3352,-0.25122,-1,-1,-1,4,75274,1
7648.9,-14.971,-100.04,82.578,0,0,0,3.0493,0.028627,0.083566,1.1358,-9.0764,-0.3134,0.30645,-1.3353,-0.25514,-1,-1,-1,4,75190,1
7659.4,-15.954,-98.555,87.863,0,0,0,3.0522,0.046196,0.084829,1.5806,-9.207,-0.83686,0.30068,-1.336,-0.24285,-1,-1,-1,4,75190,1
7688.7,-16.245,-98.027,89.65,0,0,0,3.0432,0.043199,0.082821,0.7304,-8.9821,-0.54263,0.29483,-1.3387,-0.24236,-1,-1,-1,4,75128,1
7699.2,-16.52,-97.499,91.425,0,0,0,3.0403,0.047626,0.080986,1.5021,-8.9058,-0.4348,0.29432,-1.3372,-0.24284,-1,-1,-1,4,75128,1
7709.8,-17.209,-95.851,96.809,0,0,0,3.0402,0.043181,0.05812,0.9483,-8.9738,-1.0702,0.28961,-1.3386,-0.22269,-1,-1,-1,4,75043,1
7739,-17.404,-95.296,98.607,0,0,0,3.0408,0.036629,0.054698,1.2916,-8.8556,-1.2119,0.28856,-1.3356,-0.22659,-1,-1,-1,4,75043,1
7749.6,-17.87,-93.629,104.02,0,0,0,3.0372,0.010252,0.046068,1.0694,-8.8105,-1.1929,0.28378,-1.335,-0.21183,-1,-1,-1,4,74966,1
7778.9,-17.992,-93.073,105.84,0,0,0,3.0404,0.0035496,0.041393,1.7195,-8.91,-1.3035,0.28377,-1.3364,-0.2143,-1,-1,-1,4,74966,1
7789.4,-18.097,-92.516,107.66,0,0,0,3.0411,-0.0071903,0.04623,1.5471,-8.8826,-1.1481,0.28036,-1.3346,-0.20936,-1,-1,-1,4,74930,1
7800,-18.354,-90.855,113.14,0,0,0,3.0478,-0.037014,0.064736,1.8546,-8.7849,-1.2662,0.27564,-1.3349,-0.1897,-1,-1,-1,4,74930,1
7829.2,-18.414,-90.304,114.97,0,0,0,3.0448,-0.0344,0.076927,1.8458,-8.7944,-0.97335,0.27712,-1.3368,-0.19119,-1,-1,-1,4,74846,1
7839.8,-18.517,-88.644,120.45,0,0,0,3.0421,-0.04991,0.10423,1.9923,-8.6916,-0.87518,0.27631,-1.339,-0.17402,-1,-1,-1,4,74846,1
7869.1,-18.542,-88.093,122.27,0,0,0,3.0442,-0.050053,0.11016,1.4195,-8.717,-0.78706,0.2719,-1.3392,-0.174,-1,-1,-1,4,74770,1
7879.6,-18.484,-86.453,127.69,0,0,0,3.0015,-0.044475,0.12436,1.6733,-8.5916,-0.86785,0.2755,-1.3392,-0.15486,-1,-1,-1,4,74770,1
7908.9,-18.443,-85.903,129.49,0,0,0,3.0109,-0.044519,0.1205,0.80675,-8.6515,-0.33286,0.27551,-1.3402,-0.15487,-1,-1,-1,4,74695,1
7919.4,-18.194,-84.246,134.9,0,0,0,3.0023,-0.020735,0.11963,1.3828,-8.5805,-0.080338,0.27858,-1.3378,-0.13816,-1,-1,-1,4,74695,1
7948.7,-18.077,-83.685,136.7,0,0,0,3.0039,-0.0086167,0.11872,0.93619,-8.5812,-0.027966,0.27908,-1.3374,-0.13619,-1,-1,-1,4,74623,1
7959.3,-17.944,-83.122,138.49,0,0,0,3.0021,-0.00058117,0.11991,1.4591,-8.7065,-0.29246,0.27867,-1.3404,-0.13131,-1,-1,-1,4,74623,1
7969.8,-17.399,-81.421,143.9,0,0,0,3.0281,0.03546,0.093841,0.94527,-8.4346,-0.10834,0.28462,-1.3369,-0.11951,-1,-1,-1,4,74542,1
7999.1,-17.179,-80.861,145.68,0,0,0,3.0058,0.040343,0.096216,1.2103,-8.4229,-0.48144,0.28464,-1.3408,-0.12151,-1,-1,-1,4,74542,1
8009.6,-16.406,-79.239,150.96,0,0,0,2.9987,0.051167,0.066452,0.63257,-8.4457,-0.51997,0.28727,-1.3409,-0.10237,-1,-1,-1,4,74456,1
8038.9,-16.1,-78.722,152.71,0,0,0,2.9832,0.04922,0.053831,0.62871,-8.3393,-0.41838,0.29166,-1.3412,-0.10484,-1,-1,-1,4,74456,1
8049.4,-15.051,-77.24,157.87,0,0,0,2.9745,0.052848,0.015873,0.76498,-8.2679,-0.73835,0.29081,-1.3409,-0.0901,-1,-1,-1,4,74387,1
8078.7,-14.666,-76.775,159.57,0,0,0,2.9691,0.048691,0.0095444,0.85533,-8.2533,-0.89247,0.29571,-1.3413,-0.091105,-1,-1,-1,4,74387,1
8089.2,-14.266,-76.331,161.26,0,0,0,2.9647,0.040964,-0.00065344,0.7279,-8.3056,-0.75524,0.29671,-1.3393,-0.086671,-1,-1,-1,4,74345,1
8099.8,-12.976,-75.111,166.28,0,0,0,2.9511,0.025434,-0.018867,1.4036,-8.3052,-0.88881,0.3032,-1.3397,-0.07442,-1,-1,-1,4,74345,1
8129.1,-12.527,-74.734,167.94,0,0,0,2.9462,0.017806,-0.006467,1.3038,-8.2433,-0.58966,0.30613,-1.3406,-0.076404,-1,-1,-1,4,74267,1
8139.6,-11.16,-73.701,172.9,0,0,0,2.948,0.0098467,0.0062075,1.7376,-8.1955,-0.68358,0.31063,-1.3372,-0.063129,-1,-1,-1,4,74267,1
8168.9,-10.689,-73.387,174.54,0,0,0,2.9396,0.0070638,0.011245,1.2702,-8.1665,-0.54222,0.31013,-1.3367,-0.063614,-1,-1,-1,4,74199,1
8179.5,-9.2506,-72.532,179.42,0,0,0,2.9295,0.0042746,0.033111,1.882,-8.1457,-0.43477,0.31909,-1.339,-0.051881,-1,-1,-1,4,74199,1
8208.7,-8.7671,-72.275,-178.96,0,0,0,2.9404,0.0069852,0.030418,1.6107,-8.1341,-0.42804,0.32201,-1.3389,-0.054347,-1,-1,-1,4,74116,1
8219.3,-8.2747,-72.026,-177.34,0,0,0,2.9225,0.01309,0.046847,1.8215,-8.0917,-0.38952,0.32599,-1.3393,-0.048472,-1,-1,-1,4,74116,1
8229.8,-6.8169,-71.353,-172.54,0,0,0,2.9087,0.021787,0.071883,1.6692,-8.1052,-0.40884,0.33101,-1.3412,-0.037211,-1,-1,-1,4,74053,1
8259.1,-6.3272,-71.153,-170.94,0,0,0,2.9172,0.025902,0.075983,1.6116,-8.0155,-0.54687,0.33682,-1.3376,-0.041622,-1,-1,-1,4,74053,1
8269.6,-4.8422,-70.622,-166.17,0,0,0,2.909,0.037223,0.091658,1.5437,-7.9034,-1.0795,0.34627,-1.3403,-0.030385,-1,-1,-1,4,73965,1
8298.9,-4.3414,-70.48,-164.58,0,0,0,2.9064,0.022704,0.099869,1.2929,-7.9079,-0.64845,0.35209,-1.3386,-0.035796,-1,-1,-1,4,73965,1
8309.4,-2.81,-70.144,-159.84,0,0,0,2.9129,0.027223,0.08309,0.82255,-7.9872,-0.45333,0.36154,-1.3419,-0.024564,-1,-1,-1,4,73888,1
8338.7,-2.2791,-70.06,-158.26,0,0,0,2.9058,0.023839,0.087421,1.312,-7.9587,-0.80523,0.36296,-1.3403,-0.028485,-1,-1,-1,4,73888,1
8349.2,-1.7568,-69.995,-156.68,0,0,0,2.913,0.019241,0.083085,0.74075,-7.8941,-1.052,0.37033,-1.3406,-0.027533,-1,-1,-1,4,73851,1
8359.8,-0.13702,-69.902,-151.95,0,0,0,2.9101,0.0092692,0.06508,0.67624,-7.9509,-0.50963,0.3778,-1.342,-0.015786,-1,-1,-1,4,73851,1
8389.1,0.40868,-69.897,-150.39,0,0,0,2.9083,0.015666,0.052396,0.68349,-7.8582,-0.40276,0.38072,-1.3423,-0.01973,-1,-1,-1,4,73775,1
8399.6,2.0668,-69.959,-145.71,0,0,0,2.8938,0.022131,0.036122,0.76669,-7.85,-0.63003,0.38903,-1.3396,-0.019247,-1,-1,-1,4,73775,1
8428.9,2.6243,-70.006,-144.15,0,0,0,2.8944,0.024168,0.025769,0.36114,-7.8225,-0.4059,0.39394,-1.3414,-0.020755,-1,-1,-1,4,73704,1
8439.4,4.3134,-70.25,-139.49,0,0,0,2.888,0.019252,0.0082267,1.0917,-7.6637,-0.25313,0.40431,-1.3421,-0.013925,-1,-1,-1,4,73704,1
8468.7,4.8678,-70.36,-137.93,0,0,0,2.889,0.026729,0.0088,0.6941,-7.7322,-0.32806,0.40761,-1.3375,-0.022738,-1,-1,-1,4,73631,1
8479.2,5.42,-70.484,-136.37,0,0,0,2.8822,0.017299,0.0042691,0.92946,-7.6953,-0.76201,0.41062,-1.3399,-0.018842,-1,-1,-1,4,73631,1
8489.8,7.0765,-70.959,-131.67,0,0,0,2.8922,0.019507,-0.0049526,1.1342,-7.7715,-0.57682,0.41896,-1.3392,-0.017394,-1,-1,-1,4,73551,1
8519,7.6134,-71.153,-130.09,0,0,0,2.8766,0.015132,0.002282,1.2646,-7.6934,-0.51367,0.3821,-1.3179,-0.00085616,-1,-1,-1,4,73551,1
8529.6,9.1745,-71.816,-125.38,0,0,0,2.8764,0.013731,0.0047035,1.2139,-7.6762,-0.73436,0.4322,-1.3402,-0.018436,-1,-1,-1,4,72713,1
8558.9,9.6845,-72.067,-123.8,0,0,0,2.8784,0.01261,0.0036988,1.2276,-7.6304,-0.35572,0.39679,-1.3432,0.021459,-1,-1,-1,4,72713,1
8569.4,11.143,-72.903,-119.03,0,0,0,2.8698,0.017351,0.019807,1.1361,-7.5574,-0.28202,0.443,-1.3428,-0.020956,-1,-1,-1,4,73400,1
8598.7,11.605,-73.204,-117.44,0,0,0,2.87,0.017707,0.024783,1.4112,-7.5355,-0.38003,0.44489,-1.3441,-0.029816,-1,-1,-1,4,73400,1
8609.2,12.058,-73.524,-115.84,0,0,0,2.8625,0.01326,0.027528,1.0731,-7.5687,-0.54275,0.44976,-1.3415,-0.031286,-1,-1,-1,4,73370,1
8619.8,13.377,-74.552,-111,0,0,0,2.8717,0.028378,0.022084,1.2572,-7.5747,-0.1233,0.45809,-1.3408,-0.031311,-1,-1,-1,4,73370,1
8649.1,13.796,-74.907,-109.39,0,0,0,2.8518,0.034301,0.029619,1.7922,-7.5222,0.031907,0.45903,-1.3412,-0.03623,-1,-1,-1,4,73292,1
8659.6,14.934,-76.012,-104.53,0,0,0,2.8415,0.061885,0.047975,0.79097,-7.5392,-0.30902,0.46982,-1.3442,-0.039737,-1,-1,-1,4,73292,1
8688.9,15.305,-76.398,-102.89,0,0,0,2.8487,0.061757,0.038984,1.2248,-7.4136,-0.58782,0.46874,-1.3422,-0.048065,-1,-1,-1,4,73228,1
8699.5,16.343,-77.625,-97.993,0,0,0,2.8259,0.067309,0.034937,1.1487,-7.4758,-0.72146,0.47952,-1.3414,-0.049081,-1,-1,-1,4,73228,1
8728.7,16.667,-78.052,-96.359,0,0,0,2.8174,0.062594,0.038836,1.2793,-7.5005,-0.78028,0.477,-1.3419,-0.056934,-1,-1,-1,4,73159,1
8739.3,16.969,-78.5,-94.719,0,0,0,2.8188,0.053362,0.045309,1.2952,-7.4211,-1.1323,0.48189,-1.3427,-0.059416,-1,-1,-1,4,73159,1
8749.8,17.812,-79.94,-89.743,0,0,0,2.8287,0.026241,0.039893,1.2148,-7.3666,-1.1488,0.48532,-1.344,-0.060915,-1,-1,-1,4,73081,1
8779.1,18.066,-80.454,-88.072,0,0,0,2.8195,0.013278,0.043757,1.2593,-7.4033,-1.1745,0.49261,-1.3447,-0.069789,-1,-1,-1,4,73081,1
8789.6,18.728,-82.055,-83.053,0,0,0,2.8228,-0.0081229,0.051376,1.1803,-7.3416,-0.91443,0.49599,-1.344,-0.074217,-1,-1,-1,4,72999,1
8818.9,18.918,-82.614,-81.36,0,0,0,2.8253,-0.012882,0.048707,1.0888,-7.4208,-0.593,0.49837,-1.3424,-0.080598,-1,-1,-1,4,72999,1
8829.4,19.362,-84.307,-76.282,0,0,0,2.8205,-0.017131,0.070311,1.202,-7.3431,-1.0226,0.50423,-1.3422,-0.083074,-1,-1,-1,4,72936,1
8858.7,19.472,-84.888,-74.588,0,0,0,2.8171,-0.023559,0.071521,1.2923,-7.376,-0.90153,0.50417,-1.3436,-0.091436,-1,-1,-1,4,72936,1
8869.2,19.572,-85.475,-72.896,0,0,0,2.811,-0.03047,0.067009,0.5646,-7.368,-0.50958,0.50459,-1.3411,-0.096818,-1,-1,-1,4,72902,1
8879.8,19.767,-87.241,-67.817,0,0,0,2.8149,-0.030054,0.065978,0.58654,-7.2691,-0.29612,0.51049,-1.3419,-0.096357,-1,-1,-1,4,72902,1
8909.1,19.81,-87.837,-66.107,0,0,0,2.8148,-0.029197,0.060004,0.62298,-7.3132,-0.40756,0.50893,-1.3438,-0.10865,-1,-1,-1,4,72836,1
8919.6,19.857,-89.598,-61.006,0,0,0,2.8118,-0.018169,0.039102,0.52237,-7.1912,-0.48632,0.51525,-1.3435,-0.11407,-1,-1,-1,4,72836,1
8948.9,19.852,-90.184,-59.311,0,0,0,2.8074,-0.016137,0.030734,0.29339,-7.1445,-0.21554,0.51371,-1.343,-0.12143,-1,-1,-1,4,72754,1
8959.4,19.768,-91.919,-54.261,0,0,0,2.7861,-0.012925,0.0006797,0.4389,-7.0745,-0.1528,0.5161,-1.3414,-0.12683,-1,-1,-1,4,72754,1
8988.8,19.723,-92.492,-52.584,0,0,0,2.781,-0.010073,-0.0062699,0.77757,-7.2012,-0.02722,0.5121,-1.3424,-0.13664,-1,-1,-1,4,72685,1
8999.3,19.492,-94.165,-47.569,0,0,0,2.7718,0.011523,-0.01866,0.77897,-7.2298,-0.005873,0.51303,-1.3423,-0.14156,-1,-1,-1,4,72685,1
9028.6,19.387,-94.704,-45.912,0,0,0,2.7615,0.015327,-0.017011,1.3261,-7.0122,-0.14225,0.51099,-1.3437,-0.15188,-1,-1,-1,4,72618,1
9039.1,19.262,-95.239,-44.26,0,0,0,2.7609,0.018233,-0.012108,1.0082,-7.157,-0.17368,0.5115,-1.3457,-0.1519,-1,-1,-1,4,72618,1
9049.7,18.779,-96.792,-39.328,0,0,0,2.7443,0.033921,0.0039916,1.5133,-7.1043,-0.47708,0.50607,-1.3463,-0.15728,-1,-1,-1,4,72545,1
9079,18.58,-97.291,-37.704,0,0,0,2.7374,0.034194,0.014383,1.2648,-7.061,-0.53334,0.50741,-1.3427,-0.16806,-1,-1,-1,4,72545,1
9089.5,17.887,-98.77,-32.848,0,0,0,2.744,0.027749,0.024337,1.9505,-6.981,-0.26697,0.50736,-1.3422,-0.17297,-1,-1,-1,4,72472,1
9118.8,17.625,-99.245,-31.24,0,0,0,2.7239,0.027539,0.039807,1.1198,-7.0358,-0.11528,0.50633,-1.3436,-0.18035,-1,-1,-1,4,72472,1
9129.3,16.755,-100.58,-26.471,0,0,0,2.7279,0.048448,0.047533,1.0847,-7.0999,0.11553,0.50235,-1.3441,-0.18721,-1,-1,-1,4,72400,1
9158.6,16.435,-101,-24.888,0,0,0,2.7222,0.056512,0.054464,1.3014,-7.0043,-0.18757,0.50275,-1.3411,-0.19308,-1,-1,-1,4,72400,1
9169.1,16.107,-101.4,-23.311,0,0,0,2.7314,0.061574,0.046726,0.79834,-6.9926,-0.38989,0.49929,-1.3426,-0.19799,-1,-1,-1,4,72367,1
9179.7,15.074,-102.56,-18.61,0,0,0,2.7256,0.064309,0.048337,0.97355,-6.9164,-0.58867,0.49479,-1.3398,-0.20433,-1,-1,-1,4,72367,1
9209,14.706,-102.92,-17.052,0,0,0,2.7299,0.062545,0.050206,0.91087,-6.9319,-0.41821,0.49231,-1.3427,-0.21123,-1,-1,-1,4,72293,1
9219.5,13.573,-103.95,-12.418,0,0,0,2.7234,0.061003,0.035601,0.93818,-6.8746,-1.0769,0.49079,-1.3417,-0.21563,-1,-1,-1,4,72293,1
9248.8,13.18,-104.28,-10.887,0,0,0,2.707,0.051101,0.041672,0.66932,-6.9018,-0.97297,0.48436,-1.3443,-0.22447,-1,-1,-1,4,72226,1
9259.3,10.717,-106.2,-1.7098,0,0,0,2.7409,-0.024389,-0.01129,0.87035,-6.8561,-0.79518,0.46802,-1.3383,-0.23516,-1,-1,-1,4,72120,1
9319.8,9.3873,-107.07,2.8333,0,0,0,2.7403,-0.045215,0.0022555,0.97144,-6.7794,-0.89853,0.46801,-1.3427,-0.2411,-1,-1,-1,4,72120,1
9349.1,8.9269,-107.34,4.3393,0,0,0,2.7428,-0.053867,0.0010675,1.2844,-6.7988,-1.0914,0.46112,-1.3462,-0.24749,-1,-1,-1,4,72053,1
9359.7,7.4645,-108.11,8.7965,0,0,0,2.7294,-0.065856,0.038991,1.5647,-6.7675,-0.96898,0.45665,-1.341,-0.24742,-1,-1,-1,4,72053,1
9388.9,6.9456,-108.33,10.269,0,0,0,2.7325,-0.069313,0.050123,1.0671,-6.7468,-0.99751,0.45169,-1.3411,-0.25428,-1,-1,-1,4,71983,1
9399.5,5.3585,-108.95,14.659,0,0,0,2.7222,-0.083258,0.070923,1.3119,-6.7605,-0.69317,0.44878,-1.3441,-0.25381,-1,-1,-1,4,71983,1
9428.7,4.8062,-109.13,16.104,0,0,0,2.7241,-0.081983,0.07938,1.6164,-6.7485,-0.84486,0.4429,-1.3457,-0.25527,-1,-1,-1,4,71920,1
9439.3,4.2472,-109.29,17.548,0,0,0,2.7168,-0.088753,0.089813,1.1442,-6.7311,-0.77678,0.43795,-1.3444,-0.25917,-1,-1,-1,4,71920,1
9449.8,2.534,-109.68,21.835,0,0,0,2.705,-0.079565,0.10934,1.2631,-6.7426,-0.43291,0.43063,-1.3446,-0.25521,-1,-1,-1,4,71847,1
9479.1,1.9527,-109.78,23.261,0,0,0,2.7124,-0.079118,0.11271,0.93184,-6.7203,-0.42381,0.43055,-1.3431,-0.26208,-1,-1,-1,4,71847,1
9489.6,0.19505,-109.95,27.539,0,0,0,2.705,-0.054926,0.11956,1.1165,-6.6734,-0.47199,0.42719,-1.3447,-0.25569,-1,-1,-1,4,71775,1
9518.9,-0.3929,-109.98,28.955,0,0,0,2.7132,-0.052462,0.11835,0.67593,-6.7008,-0.52964,0.42022,-1.3415,-0.26349,-1,-1,-1,4,71775,1
9529.5,-2.1319,-109.95,33.23,0,0,0,2.6987,-0.039524,0.099955,0.47658,-6.6692,-0.56786,0.41438,-1.3436,-0.26153,-1,-1,-1,4,71706,1
9558.7,-2.6967,-109.91,34.645,0,0,0,2.6933,-0.042644,0.097149,0.82591,-6.6104,-0.54458,0.41192,-1.3451,-0.2635,-1,-1,-1,4,71706,1
9569.3,-3.2649,-109.86,36.065,0,0,0,2.6953,-0.033077,0.096675,0.31414,-6.6254,-0.43108,0.41241,-1.3441,-0.26251,-1,-1,-1,4,71665,1
9579.8,-4.9278,-109.59,40.355,0,0,0,2.6906,-0.030921,0.080771,0.34552,-6.5099,-0.52325,0.40165,-1.3465,-0.2615,-1,-1,-1,4,71665,1
9609.1,-5.4768,-109.48,41.782,0,0,0,2.6909,-0.030442,0.07174,0.11158,-6.5315,-0.48379,0.39767,-1.3436,-0.26539,-1,-1,-1,4,71592,1
9619.7,-7.0336,-109.06,46.089,0,0,0,2.6737,-0.031892,0.030821,0.046776,-6.4421,-0.19808,0.3928,-1.3443,-0.26194,-1,-1,-1,4,71592,1
9648.9,-7.5255,-108.9,47.536,0,0,0,2.6783,-0.02926,0.016585,0.029807,-6.4599,-0.18685,0.3903,-1.3419,-0.26437,-1,-1,-1,4,71531,1
9659.5,-8.9474,-108.29,51.909,0,0,0,2.6757,-0.017775,-0.0075276,0.39274,-6.4697,-0.41023,0.38153,-1.3422,-0.25795,-1,-1,-1,4,71531,1
9688.8,-9.4143,-108.06,53.377,0,0,0,2.6784,-0.016157,-0.0078874,0.46983,-6.4044,-0.29769,0.37414,-1.3429,-0.26284,-1,-1,-1,4,71466,1
9699.3,-9.8714,-107.82,54.845,0,0,0,2.6712,-0.012093,-0.01514,0.26391,-6.4117,-0.41498,0.37513,-1.3443,-0.26384,-1,-1,-1,4,71466,1
9709.9,-11.158,-107.04,59.285,0,0,0,2.6745,-0.019075,-0.036731,1.0553,-6.3689,-0.43123,0.3644,-1.3442,-0.25692,-1,-1,-1,4,71403,1
9739.1,-11.578,-106.76,60.782,0,0,0,2.6806,-0.025384,-0.035179,1.1486,-6.2678,-0.43752,0.3634,-1.3442,-0.25937,-1,-1,-1,4,71403,1
9749.7,-12.847,-105.86,65.282,0,0,0,2.6761,-0.022046,0.0038672,1.6727,-6.3929,-0.099372,0.35416,-1.3422,-0.24753,-1,-1,-1,4,71339,1
9779,-13.271,-105.52,66.772,0,0,0,2.6723,-0.01049,0.014181,1.3765,-6.4057,0.0798,0.35313,-1.3441,-0.2554,-1,-1,-1,4,71339,1
9789.5,-14.502,-104.42,71.277,0,0,0,2.6666,0.0023556,0.032352,0.25196,-6.3029,-0.1133,0.34246,-1.3446,-0.2421,-1,-1,-1,4,71270,1
9818.8,-14.886,-104.03,72.788,0,0,0,2.6617,0.0035339,0.03056,1.3776,-6.2367,-0.3883,0.34042,-1.3431,-0.24994,-1,-1,-1,4,71270,1
9829.3,-15.261,-103.63,74.299,0,0,0,2.6576,0.0037377,0.033594,0.76014,-6.3138,-0.41348,0.3385,-1.3442,-0.24651,-1,-1,-1,4,71236,1
9839.9,-16.34,-102.37,78.878,0,0,0,2.6587,0.0028235,0.042258,1.3992,-6.2052,-0.68603,0.33368,-1.3439,-0.23666,-1,-1,-1,4,71236,1
9869.2,-16.682,-101.93,80.403,0,0,0,2.6456,0.00053608,0.047421,1.1174,-6.1549,-0.81379,0.33023,-1.3464,-0.24158,-1,-1,-1,4,71174,1
9879.7,-17.679,-100.6,85.024,0,0,0,2.6649,-0.018765,0.068533,1.3683,-6.1768,-0.2768,0.32734,-1.3403,-0.22776,-1,-1,-1,4,71174,1
9909,-17.992,-100.13,86.588,0,0,0,2.6601,-0.010333,0.076248,1.0458,-6.0971,-0.16055,0.32395,-1.3429,-0.22581,-1,-1,-1,4,71105,1
9919.6,-18.881,-98.637,91.272,0,0,0,2.6592,0.0022676,0.088325,1.2456,-6.067,-0.23437,0.32156,-1.345,-0.22189,-1,-1,-1,4,71105,1
9948.8,-19.155,-98.118,92.843,0,0,0,2.6559,0.00362,0.099952,1.0095,-6.1807,-0.35063,0.31467,-1.3427,-0.22184,-1,-1,-1,4,71034,1
9959.4,-19.878,-96.517,97.58,0,0,0,2.6544,0.0080051,0.092299,1.0742,-6.1187,-0.32961,0.31626,-1.3428,-0.20859,-1,-1,-1,4,71034,1
9988.7,-20.094,-95.964,99.165,0,0,0,2.6451,0.014463,0.094478,0.45093,-6.0688,-0.41994,0.31476,-1.3443,-0.21351,-1,-1,-1,4,70974,1
9999.2,-20.288,-95.403,100.75,0,0,0,2.6533,0.012879,0.083679,0.59566,-6.0452,-0.52819,0.31132,-1.3424,-0.21249,-1,-1,-1,4,70974,1
10010,-20.754,-93.726,105.5,0,0,0,2.6126,0.0089316,0.071423,0.54868,-6.0439,-0.10035,0.30951,-1.3446,-0.19777,-1,-1,-1,4,70904,1
10039,-20.872,-93.153,107.08,0,0,0,2.6126,0.016735,0.061156,0.54693,-6.0444,-0.30236,0.31092,-1.3406,-0.2002,-1,-1,-1,4,70904,1
10050,-21.114,-91.41,111.83,0,0,0,2.6046,0.015895,0.051777,0.49536,-5.9954,-0.096221,0.30517,-1.3453,-0.1899,-1,-1,-1,4,70841,1
10079,-21.163,-90.827,113.41,0,0,0,2.6002,0.01948,0.03939,0.40424,-5.9583,-0.47391,0.30369,-1.3444,-0.18989,-1,-1,-1,4,70841,1
10089,-21.187,-89.078,118.16,0,0,0,2.5925,0.018405,0.028779,0.16715,-5.988,-0.33687,0.30136,-1.3446,-0.17662,-1,-1,-1,4,70770,1
10119,-21.163,-88.495,119.74,0,0,0,2.6012,0.016265,0.017021,0.50634,-5.9556,-0.52607,0.30131,-1.3445,-0.18153,-1,-1,-1,4,70770,1
10129,-21.113,-87.911,121.33,0,0,0,2.6025,0.016959,0.011989,0.1344,-6.0075,-0.3463,0.29891,-1.3466,-0.1781,-1,-1,-1,4,70740,1
10140,-20.848,-86.188,126.08,0,0,0,2.5943,0.011903,-0.010775,0.80706,-5.8848,-0.67262,0.30046,-1.3423,-0.16481,-1,-1,-1,4,70740,1
10169,-20.728,-85.626,127.65,0,0,0,2.5974,0.0073223,-0.016432,0.37799,-5.8688,-0.7023,0.30046,-1.3438,-0.1658,-1,-1,-1,4,70676,1
10180,-20.272,-83.989,132.37,0,0,0,2.5999,-0.015533,-0.020138,1.2151,-5.8427,-0.82943,0.30058,-1.3419,-0.15056,-1,-1,-1,4,70676,1
10209,-20.102,-83.467,133.94,0,0,0,2.6053,-0.023887,-0.010947,1.0958,-5.7793,-0.86471,0.30247,-1.3399,-0.15644,-1,-1,-1,4,70612,1
10219,-19.548,-81.948,138.62,0,0,0,2.6016,-0.041849,0.011925,1.463,-5.8231,-0.46529,0.29779,-1.3456,-0.13781,-1,-1,-1,4,70612,1
10249,-19.348,-81.458,140.18,0,0,0,2.6066,-0.047374,0.023957,1.0356,-5.7871,-0.29955,0.29477,-1.3417,-0.14219,-1,-1,-1,4,70553,1
10259,-19.142,-80.972,141.74,0,0,0,2.6027,-0.043942,0.030596,1.1694,-5.8395,-0.11618,0.29973,-1.3455,-0.13978,-1,-1,-1,4,70553,1
10270,-18.466,-79.511,146.4,0,0,0,2.617,-0.02267,0.053444,1.1556,-5.7672,-0.09405,0.30085,-1.3437,-0.12307,-1,-1,-1,4,70486,1
10299,-18.225,-79.032,147.95,0,0,0,2.6071,-0.024728,0.066745,1.4328,-5.7764,-0.26366,0.29885,-1.3418,-0.12501,-1,-1,-1,4,70486,1
10310,-17.462,-77.626,152.54,0,0,0,2.6012,-0.0048659,0.088726,1.407,-5.8482,-0.30573,0.30339,-1.3433,-0.11178,-1,-1,-1,4,70425,1
10339,-17.188,-77.171,154.07,0,0,0,2.6016,-0.002114,0.084196,0.6855,-5.6408,-0.079438,0.30438,-1.3427,-0.11031,-1,-1,-1,4,70425,1
10349,-16.299,-75.846,158.58,0,0,0,2.5716,0.013807,0.099168,0.63111,-5.7202,-0.20454,0.3074,-1.3408,-0.099987,-1,-1,-1,4,70362,1
10379,-15.989,-75.42,160.07,0,0,0,2.5783,0.017428,0.087954,1.0069,-5.6752,-0.0031369,0.30742,-1.3447,-0.10199,-1,-1,-1,4,70362,1
10389,-15.656,-74.999,161.55,0,0,0,2.5638,0.024712,0.093411,0.90046,-5.6584,-0.12121,0.31385,-1.3455,-0.097106,-1,-1,-1,4,70325,1
10400,-14.617,-73.772,165.96,0,0,0,2.5693,0.045811,0.089304,0.83232,-5.6019,-0.23881,0.3178,-1.3416,-0.089228,-1,-1,-1,4,70325,1
10429,-14.248,-73.378,167.42,0,0,0,2.5592,0.042405,0.087488,0.46741,-5.6858,-0.43954,0.31685,-1.3465,-0.091232,-1,-1,-1,4,70266,1
10440,-13.056,-72.273,171.77,0,0,0,2.5739,0.046582,0.074605,0.90827,-5.6196,-0.42541,0.32474,-1.3429,-0.082881,-1,-1,-1,4,70266,1
10469,-12.639,-71.925,173.22,0,0,0,2.5689,0.043865,0.069814,0.2589,-5.6567,-0.41765,0.32477,-1.3454,-0.081429,-1,-1,-1,4,70208,1
10479,-11.318,-70.961,177.5,0,0,0,2.5703,0.043521,0.052143,0.4517,-5.5019,-0.5027,0.33318,-1.3452,-0.073601,-1,-1,-1,4,70208,1
10509,-10.852,-70.663,178.91,0,0,0,2.57,0.044539,0.041239,0.35888,-5.5524,-0.4799,0.33222,-1.3472,-0.074106,-1,-1,-1,4,70138,1
10519,-10.373,-70.381,-179.68,0,0,0,2.5621,0.040567,0.032566,0.5978,-5.4938,-0.74069,0.33659,-1.3455,-0.077055,-1,-1,-1,4,70138,1
10530,-8.8967,-69.636,-175.5,0,0,0,2.5652,0.020737,0.022922,0.68229,-5.458,-0.7745,0.33918,-1.3442,-0.059371,-1,-1,-1,4,70078,1
10559,-8.3924,-69.427,-174.11,0,0,0,2.5673,0.011016,0.023325,0.95128,-5.4292,-0.7021,0.34203,-1.3449,-0.070686,-1,-1,-1,4,70078,1
10570,-6.8643,-68.869,-169.93,0,0,0,2.5706,0.0017465,0.030846,0.72553,-5.4336,-0.51295,0.34611,-1.3469,-0.055493,-1,-1,-1,4,70013,1
10599,-6.3478,-68.716,-168.55,0,0,0,2.58,-0.0036898,0.030535,0.76,-5.4591,-0.54842,0.30519,-1.3135,-0.041288,-1,-1,-1,4,70013,1
10609,-4.7752,-68.324,-164.43,0,0,0,2.5622,-0.0099459,0.032205,0.71836,-5.4567,-0.13257,0.35446,-1.37,-0.026258,-1,-1,-1,4,69445,1
10639,-4.2472,-68.225,-163.07,0,0,0,2.5634,-0.0073075,0.024854,0.29148,-5.4034,-0.1249,0.35987,-1.3495,-0.055568,-1,-1,-1,4,69445,1
10649,-3.7088,-68.13,-161.7,0,0,0,2.561,-0.0023218,0.022329,0.49939,-5.3369,0.076735,0.35984,-1.346,-0.054555,-1,-1,-1,4,69925,1
10660,-2.0764,-67.9,-157.64,0,0,0,2.5562,0.013808,0.0057563,0.5603,-5.3825,0.073454,0.36725,-1.3449,-0.047697,-1,-1,-1,4,69925,1
10689,-1.5233,-67.841,-156.3,0,0,0,2.5478,0.023515,0.0036012,0.47631,-5.4418,0.019435,0.36679,-1.3469,-0.04624,-1,-1,-1,4,69863,1
10700,0.14501,-67.732,-152.26,0,0,0,2.5579,0.031268,-0.0058202,1.0327,-5.3165,-0.09738,0.38005,-1.346,-0.043827,-1,-1,-1,4,69863,1
10729,0.70727,-67.722,-150.9,0,0,0,2.5617,0.031985,-0.001641,1.025,-5.3255,0.025083,0.37855,-1.3451,-0.045778,-1,-1,-1,4,69799,1
10739,2.3324,-67.745,-146.85,0,0,0,2.5421,0.049456,0.024898,1.2985,-5.2611,-0.1288,0.38591,-1.3434,-0.043336,-1,-1,-1,4,69799,1
10769,2.8634,-67.772,-145.5,0,0,0,2.5423,0.052195,0.026453,0.93174,-5.3001,-0.0076404,0.38498,-1.3469,-0.041889,-1,-1,-1,4,69750,1
10779,4.4257,-67.93,-141.46,0,0,0,2.5349,0.060716,0.046449,0.7527,-5.2722,-0.11436,0.39386,-1.3476,-0.036527,-1,-1,-1,4,69750,1
10809,4.9488,-68.002,-140.1,0,0,0,2.5339,0.05853,0.04232,0.97503,-5.2527,-0.58485,0.39424,-1.3426,-0.043852,-1,-1,-1,4,69678,1
10819,5.4665,-68.092,-138.75,0,0,0,2.5255,0.057746,0.048543,0.91764,-5.1748,-0.34729,0.39676,-1.3465,-0.040458,-1,-1,-1,4,69678,1
10830,6.989,-68.446,-134.69,0,0,0,2.5224,0.047404,0.049644,1.0033,-5.1745,-0.58803,0.40804,-1.3457,-0.03902,-1,-1,-1,4,69627,1
10859,7.4881,-68.596,-133.34,0,0,0,2.5144,0.038607,0.056853,1.0741,-5.1897,-0.46323,0.39903,-1.2797,-0.037914,-1,-1,-1,4,69627,1
10870,8.9371,-69.131,-129.24,0,0,0,2.52,0.028177,0.065734,0.67236,-5.1242,-0.52739,0.41636,-1.3459,-0.042001,-1,-1,-1,4,69565,1
10899,9.4125,-69.337,-127.87,0,0,0,2.5105,0.024435,0.068883,0.92936,-5.1405,-0.50106,0.42132,-1.3536,-0.044543,-1,-1,-1,4,69565,1
10909,10.8,-70.037,-123.75,0,0,0,2.5112,0.016111,0.071056,0.94776,-5.1551,-0.31137,0.42272,-1.3457,-0.043006,-1,-1,-1,4,69500,1
10939,11.243,-70.291,-122.37,0,0,0,2.4986,0.014231,0.079425,0.5297,-5.1553,-0.1545,0.42955,-1.3454,-0.04696,-1,-1,-1,4,69500,1
10949,11.681,-70.559,-120.99,0,0,0,2.5079,0.011986,0.070645,0.90356,-5.1775,-0.6323,0.4271,-1.346,-0.047446,-1,-1,-1,4,69471,1
10960,12.964,-71.417,-116.84,0,0,0,2.4875,0.015587,0.069953,0.22048,-5.0953,-0.38887,0.43842,-1.3481,-0.045053,-1,-1,-1,4,69471,1
10989,13.383,-71.725,-115.45,0,0,0,2.4921,0.012822,0.061132,0.61669,-5.1314,-0.62394,0.44331,-1.2897,-0.033751,-1,-1,-1,4,69413,1
11000,14.623,-72.748,-111.25,0,0,0,2.4944,-0.0045012,0.049003,0.16258,-5.0924,-0.56699,0.44572,-1.3473,-0.050477,-1,-1,-1,4,69413,1
11029,15.021,-73.112,-109.83,0,0,0,2.5031,-0.0007352,0.044013,0.42816,-5.0894,-0.54578,0.44702,-1.3816,-0.055204,-1,-1,-1,4,69355,1
11039,16.189,-74.294,-105.57,0,0,0,2.5039,-0.019193,0.027879,0.54534,-5.0188,-0.60725,0.45545,-1.344,-0.055397,-1,-1,-1,4,69355,1
11069,16.562,-74.716,-104.13,0,0,0,2.5009,-0.028799,0.026702,0.64783,-5.0343,-0.44319,0.451,-1.3451,-0.060792,-1,-1,-1,4,69289,1
11079,16.919,-75.15,-102.7,0,0,0,2.4988,-0.026063,0.030617,0.37293,-5.0285,-0.39472,0.45937,-1.3492,-0.062825,-1,-1,-1,4,69289,1
11090,17.942,-76.508,-98.364,0,0,0,2.5003,-0.034486,0.017101,0.64923,-4.9652,-0.22009,0.46275,-1.3457,-0.063789,-1,-1,-1,4,69238,1
11119,18.263,-76.979,-96.912,0,0,0,2.4815,-0.033312,0.020904,0.7323,-5.0397,-0.39832,0.46323,-1.3355,-0.053387,-1,-1,-1,4,69238,1
11130,19.135,-78.446,-92.54,0,0,0,2.4779,-0.037625,0.027824,0.45611,-4.9738,-0.13473,0.46863,-1.3474,-0.066283,-1,-1,-1,4,69171,1
11159,19.395,-78.945,-91.084,0,0,0,2.4637,-0.032167,0.028965,0.37901,-4.9156,-0.26083,0.47997,-1.3573,-0.071326,-1,-1,-1,4,69171,1
11169,20.124,-80.478,-86.694,0,0,0,2.4618,-0.032011,0.014992,0.17523,-4.9144,-0.45188,0.47445,-1.3462,-0.07268,-1,-1,-1,4,69117,1
11199,20.352,-81.006,-85.225,0,0,0,2.4572,-0.031994,0.008813,0.10308,-4.9047,-0.31387,0.47586,-1.3471,-0.081043,-1,-1,-1,4,69117,1
11209,20.57,-81.54,-83.756,0,0,0,2.4542,-0.035236,0.0019087,0.078544,-4.9296,-0.36621,0.47684,-1.3461,-0.079565,-1,-1,-1,4,69082,1
11220,21.177,-83.191,-79.324,0,0,0,2.451,-0.038773,-0.018219,0.37999,-4.8913,-0.27251,0.4783,-1.3475,-0.082038,-1,-1,-1,4,69082,1
11249,21.355,-83.752,-77.844,0,0,0,2.4505,-0.039758,-0.02512,0.18965,-4.9182,-0.18866,0.46993,-1.3385,-0.075542,-1,-1,-1,4,69041,1
11260,21.828,-85.458,-73.386,0,0,0,2.4512,-0.037102,-0.039512,0.37387,-4.8271,-0.093399,0.48406,-1.3442,-0.092346,-1,-1,-1,4,69041,1
11289,21.96,-86.04,-71.89,0,0,0,2.445,-0.039797,-0.03663,0.73591,-4.7907,-0.27799,0.48209,-1.3457,-0.09579,-1,-1,-1,4,68979,1
11300,22.248,-87.788,-67.408,0,0,0,2.4401,-0.031788,-0.030111,0.64993,-4.7848,0.045615,0.48451,-1.348,-0.10171,-1,-1,-1,4,68979,1
11329,22.316,-88.373,-65.908,0,0,0,2.4462,-0.030932,-0.031361,0.8604,-4.7863,-0.07454,0.48346,-1.348,-0.10908,-1,-1,-1,4,68918,1
11339,22.415,-90.124,-61.405,0,0,0,2.4386,-0.017693,-0.016491,0.69313,-4.8354,0.14998,0.48493,-1.347,-0.10858,-1,-1,-1,4,68918,1
11369,22.411,-90.695,-59.914,0,0,0,2.4328,-0.01031,-0.0091153,1.2478,-4.796,0.11248,0.48384,-1.3449,-0.11789,-1,-1,-1,4,68860,1
11379,22.288,-92.38,-55.448,0,0,0,2.4264,0.012297,0.012147,1.0319,-4.7903,0.14657,0.48728,-1.3473,-0.12038,-1,-1,-1,4,68860,1
11408,22.213,-92.926,-53.964,0,0,0,2.4219,0.01835,0.021302,1.0414,-4.7555,-0.052546,0.48871,-1.3467,-0.12431,-1,-1,-1,4,68810,1
11419,22.121,-93.47,-52.483,0,0,0,2.4255,0.021816,0.02487,0.84442,-4.7033,-0.0024016,0.48768,-1.3452,-0.12773,-1,-1,-1,4,68810,1
11430,21.758,-95.06,-48.078,0,0,0,2.4095,0.031002,0.040811,0.68174,-4.6167,-0.27078,0.48622,-1.3472,-0.12873,-1,-1,-1,4,68753,1
11459,21.61,-95.583,-46.618,0,0,0,2.4007,0.030458,0.038661,0.47458,-4.6297,-0.1343,0.49054,-1.3484,-0.14103,-1,-1,-1,4,68753,1
11469,21.118,-97.126,-42.268,0,0,0,2.3997,0.027585,0.030741,0.7675,-4.616,0.024957,0.49006,-1.347,-0.13807,-1,-1,-1,4,68699,1
11499,20.93,-97.627,-40.829,0,0,0,2.3845,0.028609,0.033139,0.57086,-4.5853,-0.054073,0.48848,-1.3455,-0.14837,-1,-1,-1,4,68699,1
11509,20.728,-98.116,-39.404,0,0,0,2.3877,0.032839,0.034202,0.71496,-4.6317,-0.36629,0.49047,-1.3469,-0.14741,-1,-1,-1,4,68662,1
11520,20.059,-99.545,-35.127,0,0,0,2.3856,0.034252,0.029303,0.45752,-4.5687,-0.52078,0.48844,-1.343,-0.14982,-1,-1,-1,4,68662,1
11549,19.818,-100.01,-33.705,0,0,0,2.389,0.028441,0.02719,0.46716,-4.6367,-0.48101,0.4889,-1.3487,-0.16019,-1,-1,-1,4,68607,1
11560,19.041,-101.42,-29.441,0,0,0,2.4024,0.01336,0.018517,0.95417,-4.5325,-0.32764,0.48595,-1.3464,-0.15868,-1,-1,-1,4,68607,1
11589,18.753,-101.87,-28.032,0,0,0,2.3994,0.017119,0.027729,0.64751,-4.5826,-0.16873,0.48343,-1.3483,-0.16802,-1,-1,-1,4,68553,1
11599,17.835,-103.16,-23.869,0,0,0,2.3755,0.0052084,0.031747,0.74409,-4.5084,-0.33598,0.48539,-1.3502,-0.17099,-1,-1,-1,4,68553,1
11629,17.506,-103.58,-22.503,0,0,0,2.3827,0.0057352,0.028259,0.7904,-4.4606,-0.11557,0.48187,-1.3468,-0.17684,-1,-1,-1,4,68497,1
11639,17.173,-103.98,-21.134,0,0,0,2.369,0.0078307,0.028547,0.70305,-4.4945,-0.37702,0.48234,-1.3478,-0.18029,-1,-1,-1,4,68497,1
11650,16.097,-105.13,-17.096,0,0,0,2.3539,0.0029844,0.046163,0.59403,-4.4618,-0.66933,0.48086,-1.3488,-0.18177,-1,-1,-1,4,68439,1
11679,15.727,-105.5,-15.771,0,0,0,2.3527,-0.0052228,0.038187,0.51523,-4.453,-0.59605,0.48074,-1.3448,-0.19057,-1,-1,-1,4,68439,1
11690,14.561,-106.57,-11.818,0,0,0,2.3477,-0.019164,0.046978,0.61969,-4.337,-0.57224,0.47639,-1.3503,-0.1906,-1,-1,-1,4,68385,1
11719,14.153,-106.91,-10.507,0,0,0,2.3487,-0.022862,0.044788,0.58712,-4.4061,-0.18746,0.47677,-1.3448,-0.19596,-1,-1,-1,4,68385,1
11729,12.889,-107.87,-6.6177,0,0,0,2.3393,-0.022068,0.046193,0.76811,-4.3959,-0.13577,0.46941,-1.3465,-0.19791,-1,-1,-1,4,68331,1
11759,12.454,-108.16,-5.3362,0,0,0,2.3418,-0.023603,0.052825,0.87534,-4.4209,-0.14647,0.4689,-1.3494,-0.20383,-1,-1,-1,4,68331,1
11769,11.105,-108.97,-1.5092,0,0,0,2.3339,-0.0094343,0.055892,0.61906,-4.402,0.0777,0.4679,-1.347,-0.2038,-1,-1,-1,4,68286,1
11799,10.643,-109.2,-0.25455,0,0,0,2.3302,-0.00039992,0.05632,0.53956,-4.3643,-0.056449,0.46442,-1.347,-0.20919,-1,-1,-1,4,68286,1
11809,10.18,-109.42,0.99475,0,0,0,2.3187,0.004628,0.05613,0.22595,-4.3745,-0.098149,0.46485,-1.3465,-0.21508,-1,-1,-1,4,68253,1
11820,8.7885,-110.01,4.7278,0,0,0,2.317,0.014702,0.044141,0.4225,-4.341,-0.29322,0.46042,-1.3466,-0.21605,-1,-1,-1,4,68253,1
11849,8.3212,-110.19,5.9626,0,0,0,2.3052,0.016616,0.039535,0.285,-4.3482,-0.25977,0.45602,-1.3482,-0.21703,-1,-1,-1,4,68204,1
11859,6.9195,-110.65,9.6372,0,0,0,2.2967,0.013288,0.028528,0.49304,-4.3451,-0.6917,0.45792,-1.3461,-0.22144,-1,-1,-1,4,68204,1
11889,6.4489,-110.79,10.856,0,0,0,2.289,0.010368,0.029451,0.15227,-4.2626,-0.71206,0.45047,-1.3433,-0.22826,-1,-1,-1,4,68143,1
11899,5.9755,-110.92,12.068,0,0,0,2.2923,-0.0024373,0.025444,0.43204,-4.2854,-0.77385,0.45245,-1.3452,-0.22829,-1,-1,-1,4,68143,1
11910,4.5771,-111.32,15.689,0,0,0,2.2765,-0.035996,0.0046673,0.067373,-4.201,-0.89878,0.44858,-1.3478,-0.22584,-1,-1,-1,4,68093,1
11939,4.1066,-111.44,16.901,0,0,0,2.2859,-0.040172,0.0040709,0.56185,-4.219,-0.60096,0.4431,-1.3455,-0.23317,-1,-1,-1,4,68093,1
11950,2.6882,-111.77,20.528,0,0,0,2.2772,-0.069586,-0.001653,0.52462,-4.1961,-0.81033,0.43972,-1.3481,-0.22974,-1,-1,-1,4,68029,1
11979,2.2098,-111.87,21.72,0,0,0,2.2814,-0.071189,0.00035931,0.58048,-4.1724,-0.543,0.43429,-1.3482,-0.23414,-1,-1,-1,4,68029,1
11989,0.74578,-112.11,25.32,0,0,0,2.2838,-0.087668,0.0084199,0.42973,-4.1522,-0.44393,0.43186,-1.3459,-0.22822,-1,-1,-1,4,67979,1
12019,0.25247,-112.17,26.515,0,0,0,2.2822,-0.088986,0.012119,0.62287,-4.1545,-0.48144,0.42984,-1.3473,-0.23706,-1,-1,-1,4,67979,1
12029,-0.24308,-112.22,27.708,0,0,0,2.2803,-0.0861,0.013644,0.28031,-4.1673,-0.35917,0.42491,-1.3445,-0.23653,-1,-1,-1,4,67951,1
12040,-1.7368,-112.32,31.296,0,0,0,2.2854,-0.091244,0.018689,0.77014,-4.0997,-0.28643,0.42054,-1.3462,-0.23309,-1,-1,-1,4,67951,1
12069,-2.2408,-112.33,32.492,0,0,0,2.285,-0.090771,0.021081,0.46242,-4.1131,-0.17741,0.41658,-1.3458,-0.2365,-1,-1,-1,4,67901,1
12080,-3.7534,-112.29,36.068,0,0,0,2.2816,-0.087741,0.030069,0.76706,-4.1226,-0.037458,0.41518,-1.3488,-0.23211,-1,-1,-1,4,67901,1
12109,-4.2614,-112.25,37.258,0,0,0,2.279,-0.083334,0.033244,0.60593,-4.1205,0.080471,0.41366,-1.3483,-0.2375,-1,-1,-1,4,67839,1
12119,-5.7812,-112.05,40.82,0,0,0,2.2666,-0.063506,0.042656,0.735,-4.0936,0.18783,0.40684,-1.3495,-0.23405,-1,-1,-1,4,67839,1
12149,-6.2874,-111.95,42.003,0,0,0,2.2647,-0.05556,0.05183,0.80552,-4.0851,0.26902,0.40387,-1.3486,-0.2355,-1,-1,-1,4,67793,1
12159,-6.7989,-111.84,43.185,0,0,0,2.2615,-0.048864,0.058208,0.86406,-4.0787,0.32865,0.40529,-1.3476,-0.23991,-1,-1,-1,4,67793,1
12170,-8.3041,-111.4,46.715,0,0,0,2.2395,-0.012673,0.067643,0.72894,-4.089,0.25999,0.39804,-1.3494,-0.23057,-1,-1,-1,4,67740,1
12199,-8.8007,-111.21,47.89,0,0,0,2.234,0.0065335,0.069026,0.79352,-4.0284,0.22683,0.39846,-1.3507,-0.23943,-1,-1,-1,4,67740,1
12210,-10.26,-110.59,51.428,0,0,0,2.2264,0.010023,0.078745,0.96359,-3.9722,-0.043516,0.39312,-1.3456,-0.22806,-1,-1,-1,4,67696,1
12239,-10.75,-110.37,52.608,0,0,0,2.2223,0.014526,0.085296,0.61519,-4.0375,0.11896,0.39163,-1.3495,-0.23399,-1,-1,-1,4,67696,1
12249,-12.173,-109.6,56.181,0,0,0,2.2199,0.029611,0.085923,0.62711,-4.0513,0.16556,0.38821,-1.3487,-0.23151,-1,-1,-1,4,67643,1
12279,-12.636,-109.32,57.382,0,0,0,2.2247,0.037623,0.081542,0.21286,-3.983,-0.11889,0.38322,-1.3449,-0.23637,-1,-1,-1,4,67643,1
12289,-13.09,-109.02,58.592,0,0,0,2.2247,0.039649,0.081349,0.41062,-4.0061,0.0013359,0.38676,-1.3516,-0.233,-1,-1,-1,4,67619,1
12300,-14.403,-108.06,62.247,0,0,0,2.2294,0.050671,0.068605,0.12425,-3.9794,-0.16084,0.38135,-1.3469,-0.2295,-1,-1,-1,4,67619,1
12329,-14.821,-107.72,63.483,0,0,0,2.2264,0.051481,0.064823,0.14605,-3.9824,-0.23722,0.37788,-1.3451,-0.23144,-1,-1,-1,4,67563,1
12340,-15.994,-106.64,67.214,0,0,0,2.2252,0.044045,0.034841,0.090001,-3.9537,-0.508,0.37156,-1.3497,-0.23047,-1,-1,-1,4,67563,1
12369,-16.358,-106.27,68.475,0,0,0,2.2271,0.035477,0.026482,0.19042,-3.8819,-0.65146,0.3705,-1.3477,-0.23634,-1,-1,-1,4,67507,1
12379,-17.4,-105.15,72.277,0,0,0,2.2276,0.0078747,0.018946,0.34829,-3.9481,-0.65413,0.36665,-1.3469,-0.22797,-1,-1,-1,4,67507,1
12409,-17.73,-104.76,73.557,0,0,0,2.2234,0.0028983,0.011814,0.2645,-3.9021,-0.36534,0.36515,-1.3489,-0.23339,-1,-1,-1,4,67453,1
12419,-18.044,-104.37,74.84,0,0,0,2.2263,-0.0022309,0.0074766,0.50329,-3.9039,-0.38227,0.36416,-1.347,-0.2314,-1,-1,-1,4,67453,1
12430,-18.949,-103.16,78.712,0,0,0,2.2186,-0.011486,0.011007,0.47275,-3.8802,-0.50865,0.35979,-1.3467,-0.22647,-1,-1,-1,4,67409,1
12459,-19.237,-102.75,80.003,0,0,0,2.2156,-0.01533,0.01392,0.57932,-3.9109,-0.63994,0.3583,-1.3457,-0.22695,-1,-1,-1,4,67409,1
12470,-20.044,-101.48,83.91,0,0,0,2.2162,-0.031529,0.016234,0.57132,-3.889,-0.71446,0.35295,-1.3445,-0.22151,-1,-1,-1,4,67358,1
12499,-20.3,-101.06,85.224,0,0,0,2.2179,-0.039963,0.019835,0.74097,-3.841,-0.52052,0.35243,-1.3469,-0.22693,-1,-1,-1,4,67358,1
12509,-21.029,-99.752,89.169,0,0,0,2.2111,-0.056152,0.032861,0.47238,-3.8645,-0.60508,0.34667,-1.3487,-0.21514,-1,-1,-1,4,67299,1
12539,-21.255,-99.309,90.496,0,0,0,2.2163,-0.058858,0.035476,0.69161,-3.8339,-0.43966,0.34372,-1.3478,-0.21512,-1,-1,-1,4,67299,1
12549,-21.893,-97.95,94.511,0,0,0,2.2206,-0.070774,0.044732,0.58114,-3.8047,-0.21844,0.34039,-1.3485,-0.20382,-1,-1,-1,4,67252,1
12579,-22.085,-97.487,95.853,0,0,0,2.2212,-0.067965,0.043765,0.53864,-3.8127,-0.10123,0.3408,-1.3479,-0.21266,-1,-1,-1,4,67252,1
12589,-22.266,-97.011,97.199,0,0,0,2.2187,-0.06294,0.046708,0.56418,-3.8309,-0.11686,0.3384,-1.3485,-0.20774,-1,-1,-1,4,67231,1
12600,-22.762,-95.552,101.22,0,0,0,2.1934,-0.049608,0.056154,0.34515,-3.7983,-0.12186,0.33552,-1.3462,-0.19789,-1,-1,-1,4,67231,1
12629,-22.904,-95.059,102.55,0,0,0,2.1901,-0.049056,0.052758,0.51904,-3.8272,-0.086539,0.33695,-1.3461,-0.20231,-1,-1,-1,4,67175,1
12639,-23.269,-93.553,106.57,0,0,0,2.1789,-0.040756,0.058937,0.30354,-3.7735,0.045594,0.3361,-1.3497,-0.19104,-1,-1,-1,4,67175,1
12669,-23.368,-93.037,107.91,0,0,0,2.1846,-0.036282,0.052639,0.38556,-3.7658,0.13065,0.33212,-1.3474,-0.19493,-1,-1,-1,4,67128,1
12679,-23.449,-92.514,109.26,0,0,0,2.1812,-0.029241,0.048816,0.34558,-3.72,0.097443,0.29278,-1.3165,-0.17094,-1,-1,-1,4,67128,1
12690,-23.613,-90.911,113.31,0,0,0,2.1791,-0.0098418,0.044409,0.57127,-3.7482,0.10022,0.33919,-1.3804,-0.15596,-1,-1,-1,4,66486,1
12719,-23.655,-90.367,114.65,0,0,0,2.1713,-0.0010258,0.051478,0.67549,-3.7567,0.22354,0.28868,-1.3839,-0.15874,-1,-1,-1,4,66486,1
12730,-23.701,-88.715,118.69,0,0,0,2.1598,0.018694,0.049092,0.51123,-3.7246,0.2713,0.33131,-1.3466,-0.17577,-1,-1,-1,4,67023,1
12759,-23.692,-88.159,120.02,0,0,0,2.1557,0.025933,0.051203,0.57484,-3.7195,0.080613,0.32641,-1.3497,-0.17823,-1,-1,-1,4,67023,1
12769,-23.589,-86.477,124.03,0,0,0,2.1544,0.040257,0.049386,0.84228,-3.6776,0.034615,0.32842,-1.3487,-0.17136,-1,-1,-1,4,66984,1
12799,-23.537,-85.917,125.36,0,0,0,2.1493,0.042142,0.053211,0.52745,-3.6876,0.032066,0.3294,-1.3482,-0.17086,-1,-1,-1,4,66984,1
12809,-23.307,-84.238,129.32,0,0,0,2.1373,0.054048,0.056416,0.9111,-3.6505,-0.21034,0.32605,-1.3479,-0.16103,-1,-1,-1,4,66932,1
12839,-23.209,-83.687,130.64,0,0,0,2.1394,0.053334,0.053905,0.51232,-3.6873,-0.11508,0.32839,-1.3477,-0.17331,-1,-1,-1,4,66932,1
12849,-23.098,-83.14,131.95,0,0,0,2.1358,0.05166,0.0602,0.93269,-3.6805,-0.24293,0.32702,-1.3493,-0.16448,-1,-1,-1,4,66907,1
12860,-22.718,-81.522,135.88,0,0,0,2.1303,0.049239,0.066164,0.53513,-3.6576,-0.29788,0.33002,-1.3493,-0.15762,-1,-1,-1,4,66907,1
12889,-22.57,-80.995,137.18,0,0,0,2.1267,0.047908,0.06912,0.62855,-3.621,-0.20746,0.32701,-1.3464,-0.162,-1,-1,-1,4,66860,1
12899,-22.064,-79.442,141.06,0,0,0,2.1242,0.043415,0.069846,0.36549,-3.5867,-0.25018,0.32858,-1.346,-0.1507,-1,-1,-1,4,66860,1
12929,-21.868,-78.937,142.35,0,0,0,2.1313,0.040193,0.065108,0.64307,-3.589,-0.17244,0.32904,-1.3459,-0.15414,-1,-1,-1,4,66808,1
12939,-21.227,-77.462,146.19,0,0,0,2.1248,0.036781,0.067862,0.59865,-3.6066,-0.30148,0.33063,-1.3494,-0.14436,-1,-1,-1,4,66808,1
12969,-20.996,-76.987,147.46,0,0,0,2.1204,0.033708,0.070475,0.58131,-3.5865,-0.38325,0.32716,-1.3504,-0.14976,-1,-1,-1,4,66764,1
12979,-20.758,-76.52,148.72,0,0,0,2.122,0.030678,0.072305,0.48833,-3.557,-0.36672,0.33008,-1.3484,-0.14975,-1,-1,-1,4,66764,1
12990,-19.98,-75.165,152.5,0,0,0,2.1217,0.023672,0.072128,0.63882,-3.5387,-0.4406,0.32919,-1.3485,-0.14041,-1,-1,-1,4,66717,1
13019,-19.701,-74.73,153.75,0,0,0,2.1212,0.01947,0.069805,0.48481,-3.5242,-0.35526,0.33115,-1.3494,-0.14141,-1,-1,-1,4,66717,1
13029,-18.818,-73.49,157.47,0,0,0,2.1211,0.0081377,0.07474,0.65952,-3.5054,-0.38631,0.32926,-1.3496,-0.13404,-1,-1,-1,4,66664,1
13059,-18.509,-73.092,158.71,0,0,0,2.129,0.0055497,0.0747,0.65876,-3.5254,-0.36683,0.3322,-1.3485,-0.13306,-1,-1,-1,4,66664,1
13069,-17.545,-71.96,162.39,0,0,0,2.1179,-0.0053736,0.085544,0.80538,-3.5297,-0.32308,0.33271,-1.3485,-0.13011,-1,-1,-1,4,66617,1
13099,-17.218,-71.606,163.6,0,0,0,2.1201,-0.010591,0.088818,0.68171,-3.4936,-0.50666,0.33613,-1.3474,-0.13012,-1,-1,-1,4,66617,1
13109,-16.882,-71.26,164.81,0,0,0,2.1117,-0.010654,0.089123,0.60741,-3.4623,-0.34779,0.33421,-1.348,-0.12618,-1,-1,-1,4,66590,1
13120,-15.856,-70.28,168.4,0,0,0,2.1099,-0.018583,0.10067,0.68205,-3.4403,-0.31179,0.33821,-1.349,-0.11933,-1,-1,-1,4,66590,1
13149,-15.501,-69.968,169.59,0,0,0,2.1043,-0.018053,0.10541,0.47153,-3.4515,-0.2597,0.33869,-1.3494,-0.1213,-1,-1,-1,4,66545,1
13159,-14.401,-69.084,173.14,0,0,0,2.1084,-0.019557,0.10252,0.51482,-3.4639,-0.16235,0.34515,-1.3503,-0.11249,-1,-1,-1,4,66545,1
13189,-14.021,-68.807,174.32,0,0,0,2.1106,-0.02108,0.1035,0.43069,-3.4128,-0.15259,0.34561,-1.3498,-0.11544,-1,-1,-1,4,66492,1
13199,-12.845,-68.016,177.82,0,0,0,2.1083,-0.010962,0.09838,0.21838,-3.3963,-0.026669,0.34765,-1.3512,-0.10809,-1,-1,-1,4,66492,1
13229,-12.437,-67.765,178.98,0,0,0,2.1111,-0.0084221,0.093144,0.38804,-3.354,-0.18318,0.35101,-1.3486,-0.11299,-1,-1,-1,4,66448,1
13239,-12.022,-67.522,-179.86,0,0,0,2.1085,-0.0068683,0.091446,0.28276,-3.4066,-0.099968,0.35104,-1.3501,-0.11153,-1,-1,-1,4,66448,1
13250,-10.753,-66.848,-176.43,0,0,0,2.1057,-0.0033042,0.083539,0.19151,-3.3728,0.026781,0.35604,-1.353,-0.10421,-1,-1,-1,4,66409,1
13279,-10.319,-66.639,-175.3,0,0,0,2.0988,-0.00094419,0.083406,0.0031135,-3.404,0.05581,0.35552,-1.351,-0.10468,-1,-1,-1,4,66409,1
13290,-8.9661,-66.053,-171.91,0,0,0,2.1076,0.0095857,0.060409,0.025066,-3.3686,-0.045911,0.3585,-1.3481,-0.098282,-1,-1,-1,4,66356,1
13319,-8.4967,-65.874,-170.8,0,0,0,2.1054,0.016142,0.05247,-0.039361,-3.3575,-0.011976,0.35896,-1.35,-0.10272,-1,-1,-1,4,66356,1
13329,-7.0513,-65.383,-167.48,0,0,0,2.1035,0.023278,0.031183,-0.10721,-3.3569,-0.1759,0.36298,-1.3499,-0.092422,-1,-1,-1,4,66308,1
13359,-6.5548,-65.234,-166.38,0,0,0,2.0993,0.030591,0.018198,-0.016416,-3.3867,-0.12571,0.3649,-1.3522,-0.10031,-1,-1,-1,4,66308,1
13369,-5.0286,-64.863,-163.12,0,0,0,2.0983,0.020132,-0.0030269,0.094968,-3.3403,-0.34962,0.36541,-1.3494,-0.094391,-1,-1,-1,4,66265,1
13398,-4.5092,-64.765,-162.04,0,0,0,2.0934,0.017483,-0.0077413,0.15219,-3.3211,-0.35095,0.36739,-1.3508,-0.094411,-1,-1,-1,4,66265,1
13409,-3.9901,-64.678,-160.97,0,0,0,2.0832,0.015323,-0.01574,0.33541,-3.2919,-0.27555,0.36741,-1.3508,-0.091464,-1,-1,-1,4,66239,1
13420,-2.42,-64.501,-157.79,0,0,0,2.0776,0.00071899,-0.019648,0.63325,-3.3123,-0.17909,0.37039,-1.3503,-0.08705,-1,-1,-1,4,66239,1
13449,-1.9011,-64.46,-156.73,0,0,0,2.0736,0.0025727,-0.017929,0.80316,-3.3047,-0.095211,0.37575,-1.3505,-0.091003,-1,-1,-1,4,66205,1
13459,-0.37354,-64.394,-153.54,0,0,0,2.0603,0.00052677,0.0044695,0.57143,-3.2379,-0.11359,0.3758,-1.3506,-0.08511,-1,-1,-1,4,66205,1
13489,0.12902,-64.392,-152.48,0,0,0,2.0685,-0.00055005,0.0076849,0.53084,-3.2431,-0.04155,0.37525,-1.3491,-0.090006,-1,-1,-1,4,66153,1
13499,0.63426,-64.397,-151.41,0,0,0,2.0598,0.0022784,0.0099476,0.54046,-3.2601,-0.19814,0.37726,-1.3525,-0.089061,-1,-1,-1,4,66153,1
13510,2.1272,-64.467,-148.24,0,0,0,2.0529,0.0044425,0.014119,0.45512,-3.2373,-0.030995,0.37977,-1.35,-0.079226,-1,-1,-1,4,66109,1
13539,2.6262,-64.506,-147.18,0,0,0,2.0517,0.0050859,0.019391,0.77106,-3.245,-0.047561,0.38117,-1.3485,-0.086094,-1,-1,-1,4,66109,1
13550,4.0805,-64.675,-144,0,0,0,2.0423,0.012532,0.028219,0.4644,-3.2449,0.086448,0.37932,-1.3535,-0.079255,-1,-1,-1,4,66056,1
13579,4.5644,-64.742,-142.94,0,0,0,2.0375,0.016667,0.029378,0.52853,-3.2618,0.10217,0.38467,-1.3518,-0.082208,-1,-1,-1,4,66056,1
13589,6.0032,-64.987,-139.75,0,0,0,2.0417,0.027181,0.032919,0.56916,-3.2255,0.12011,0.38713,-1.3503,-0.079257,-1,-1,-1,4,66016,1
13619,6.4814,-65.081,-138.69,0,0,0,2.0367,0.031786,0.02859,0.29167,-3.2259,0.10187,0.39299,-1.3511,-0.083706,-1,-1,-1,4,66016,1
13629,7.904,-65.403,-135.48,0,0,0,2.0387,0.045543,0.033053,0.35406,-3.2022,-0.013979,0.39449,-1.352,-0.080774,-1,-1,-1,4,65967,1
13659,8.3747,-65.524,-134.4,0,0,0,2.0423,0.048366,0.026692,0.22602,-3.2408,0.065835,0.39492,-1.3481,-0.083687,-1,-1,-1,4,65967,1
13669,8.8491,-65.654,-133.33,0,0,0,2.0403,0.049778,0.024918,0.55389,-3.1993,-0.064803,0.39594,-1.3524,-0.08373,-1,-1,-1,4,65951,1
13680,10.252,-66.094,-130.09,0,0,0,2.0447,0.054555,0.020654,0.50169,-3.1883,-0.086664,0.40084,-1.3474,-0.078793,-1,-1,-1,4,65951,1
13709,10.715,-66.26,-129,0,0,0,2.0412,0.055177,0.023683,0.49269,-3.2192,-0.11791,0.39982,-1.3498,-0.086178,-1,-1,-1,4,65901,1
13719,12.071,-66.82,-125.74,0,0,0,2.0353,0.048476,0.023404,0.51316,-3.1707,-0.14477,0.40626,-1.3541,-0.083293,-1,-1,-1,4,65901,1
13749,12.516,-67.025,-124.65,0,0,0,2.0349,0.047821,0.020748,0.4658,-3.1698,-0.29097,0.40471,-1.3502,-0.087673,-1,-1,-1,4,65857,1
13759,13.827,-67.703,-121.35,0,0,0,2.0365,0.041825,0.022882,0.17613,-3.1381,-0.33116,0.40919,-1.3506,-0.080818,-1,-1,-1,4,65857,1
13788,14.258,-67.951,-120.24,0,0,0,2.0393,0.03864,0.019476,0.32091,-3.1192,-0.33528,0.40819,-1.3506,-0.08327,-1,-1,-1,4,65819,1
13799,14.688,-68.213,-119.12,0,0,0,2.0415,0.031986,0.017374,0.20688,-3.1643,-0.34033,0.40962,-1.3515,-0.088686,-1,-1,-1,4,65819,1
13810,15.948,-69.072,-115.76,0,0,0,2.0357,0.017195,0.011314,0.23159,-3.0887,-0.3685,0.41507,-1.3514,-0.082321,-1,-1,-1,4,65767,1
13839,16.362,-69.382,-114.63,0,0,0,2.0473,0.012692,0.0068437,0.45561,-3.1122,-0.31488,0.41403,-1.3528,-0.090679,-1,-1,-1,4,65767,1
13849,17.561,-70.376,-111.21,0,0,0,2.0389,5.96E-06,0.0076912,0.34065,-3.0724,-0.22674,0.41505,-1.3523,-0.086258,-1,-1,-1,4,65720,1
13879,17.945,-70.729,-110.06,0,0,0,2.0445,0.00086168,0.012422,0.32434,-3.0954,-0.062117,0.41988,-1.3501,-0.091661,-1,-1,-1,4,65720,1
13889,18.32,-71.091,-108.91,0,0,0,2.0406,-0.0042829,0.011044,0.14887,-3.0787,-0.33796,0.4209,-1.355,-0.09269,-1,-1,-1,4,65707,1
13900,19.418,-72.236,-105.42,0,0,0,2.0379,-0.0060595,0.0050488,0.20849,-3.0414,-0.27828,0.42339,-1.3526,-0.085801,-1,-1,-1,4,65707,1
13929,19.773,-72.632,-104.25,0,0,0,2.0426,-0.0059436,-0.00013709,-0.020558,-3.0688,-0.23629,0.42039,-1.3501,-0.089698,-1,-1,-1,4,65656,1
13940,20.797,-73.887,-100.7,0,0,0,2.0347,-0.015299,-0.0046139,0.077666,-3.0266,-0.18405,0.42532,-1.352,-0.089242,-1,-1,-1,4,65656,1
13969,21.122,-74.32,-99.52,0,0,0,2.0328,-0.015884,-0.011529,-0.0082483,-3.0307,-0.16744,0.42284,-1.3539,-0.094161,-1,-1,-1,4,65614,1
13979,22.073,-75.681,-95.943,0,0,0,2.0219,-0.027069,-0.024431,-0.076169,-3.0389,-0.09573,0.42973,-1.3523,-0.090244,-1,-1,-1,4,65614,1
14009,22.375,-76.15,-94.755,0,0,0,2.0199,-0.029093,-0.033311,-0.00018852,-3.0316,0.13443,0.42871,-1.3528,-0.095156,-1,-1,-1,4,65575,1
14019,23.252,-77.591,-91.167,0,0,0,2.0016,-0.021864,-0.052507,0.20376,-3.0025,0.12407,0.43019,-1.3508,-0.091215,-1,-1,-1,4,65575,1
14049,23.528,-78.068,-89.978,0,0,0,1.9906,-0.015145,-0.053706,0.28821,-3.0006,0.1788,0.43063,-1.3517,-0.09761,-1,-1,-1,4,65528,1
14059,23.792,-78.55,-88.783,0,0,0,1.9926,-0.010156,-0.055929,0.38618,-2.9997,0.21265,0.43116,-1.3546,-0.097146,-1,-1,-1,4,65528,1
14070,24.512,-80.042,-85.155,0,0,0,1.9838,-0.0061619,-0.04659,0.3919,-2.9572,0.14937,0.4336,-1.3512,-0.094178,-1,-1,-1,4,65492,1
14099,24.732,-80.549,-83.941,0,0,0,1.9897,-0.0038645,-0.046227,0.36437,-3.0081,0.14949,0.4316,-1.3526,-0.10008,-1,-1,-1,4,65492,1
14109,25.33,-82.099,-80.259,0,0,0,1.9902,0.005841,-0.042862,0.55094,-2.9945,0.17186,0.43263,-1.3517,-0.094179,-1,-1,-1,4,65447,1
14139,25.505,-82.622,-79.025,0,0,0,1.9816,0.010103,-0.037656,0.6012,-2.9768,0.11519,0.43353,-1.3511,-0.10253,-1,-1,-1,4,65447,1
14149,25.948,-84.195,-75.34,0,0,0,1.9625,0.016478,-0.025681,0.76967,-2.9446,0.14031,0.43597,-1.3496,-0.10154,-1,-1,-1,4,65400,1
14179,26.064,-84.717,-74.118,0,0,0,1.958,0.021485,-0.015438,0.64699,-2.9203,0.1265,0.43693,-1.3495,-0.104,-1,-1,-1,4,65400,1
14189,26.167,-85.24,-72.892,0,0,0,1.9528,0.025201,-0.013792,0.61227,-2.9169,0.14747,0.43397,-1.3515,-0.10794,-1,-1,-1,4,65383,1
14200,26.408,-86.818,-69.209,0,0,0,1.947,0.032183,0.0014765,0.66024,-2.9118,0.119,0.4394,-1.3528,-0.10551,-1,-1,-1,4,65383,1
14229,26.462,-87.343,-67.98,0,0,0,1.9414,0.03731,0.0061954,0.72648,-2.93,0.12497,0.43397,-1.3515,-0.10843,-1,-1,-1,4,65342,1
14239,26.55,-88.913,-64.294,0,0,0,1.9416,0.045121,0.017316,0.74698,-2.8855,-0.032905,0.43983,-1.3518,-0.1114,-1,-1,-1,4,65342,1
14269,26.556,-89.437,-63.065,0,0,0,1.9349,0.043774,0.022284,0.46062,-2.8818,-0.0087241,0.43983,-1.3518,-0.11189,-1,-1,-1,4,65302,1
14279,26.549,-89.959,-61.842,0,0,0,1.9365,0.045696,0.023629,0.67682,-2.8778,0.0548,0.43737,-1.3538,-0.11534,-1,-1,-1,4,65302,1
14290,26.459,-91.517,-58.171,0,0,0,1.937,0.051516,0.034387,0.52545,-2.853,0.21066,0.4428,-1.3532,-0.11044,-1,-1,-1,4,65256,1
14319,26.406,-92.03,-56.943,0,0,0,1.9342,0.053267,0.036592,0.53927,-2.8675,0.0052004,0.44172,-1.3531,-0.12075,-1,-1,-1,4,65256,1
14330,26.184,-93.56,-53.283,0,0,0,1.9382,0.057439,0.042801,0.32581,-2.8392,0.14848,0.44466,-1.3511,-0.11927,-1,-1,-1,4,65217,1
14359,26.088,-94.061,-52.061,0,0,0,1.9351,0.061892,0.043495,0.43991,-2.8476,-0.095007,0.44416,-1.3544,-0.12421,-1,-1,-1,4,65217,1
14369,25.758,-95.545,-48.418,0,0,0,1.9415,0.061802,0.03751,0.23464,-2.822,-0.26403,0.44319,-1.354,-0.12273,-1,-1,-1,4,65173,1
14399,25.63,-96.04,-47.203,0,0,0,1.9389,0.062271,0.037497,0.37461,-2.7602,-0.25005,0.44459,-1.3524,-0.12861,-1,-1,-1,4,65173,1
14409,25.203,-97.499,-43.591,0,0,0,1.9353,0.053963,0.031395,0.37576,-2.746,-0.32112,0.44554,-1.3524,-0.13206,-1,-1,-1,4,65131,1
14439,25.043,-97.983,-42.393,0,0,0,1.9371,0.048316,0.027456,0.24127,-2.7123,-0.4249,0.44845,-1.3527,-0.13649,-1,-1,-1,4,65131,1
14449,24.876,-98.468,-41.193,0,0,0,1.9403,0.044386,0.027141,0.39879,-2.7193,-0.4775,0.44599,-1.3538,-0.13845,-1,-1,-1,4,65119,1
14460,24.312,-99.933,-37.614,0,0,0,1.9442,0.018177,0.024892,0.14498,-2.7362,-0.3474,0.44554,-1.3519,-0.13156,-1,-1,-1,4,65119,1
14489,24.109,-100.42,-36.428,0,0,0,1.9396,0.015717,0.02199,0.16098,-2.7469,-0.40001,0.44449,-1.3523,-0.13942,-1,-1,-1,4,65075,1
14499,23.463,-101.84,-32.895,0,0,0,1.9409,0.0045636,0.0082932,0.1362,-2.7319,-0.41257,0.44938,-1.3517,-0.13992,-1,-1,-1,4,65075,1
14529,23.235,-102.31,-31.723,0,0,0,1.9402,-0.0016449,0.010388,0.27757,-2.7232,-0.2952,0.44539,-1.3502,-0.14628,-1,-1,-1,4,65021,1
14539,22.496,-103.69,-28.23,0,0,0,1.9471,-0.012634,0.0016136,0.3029,-2.7068,-0.34292,0.44645,-1.3556,-0.14388,-1,-1,-1,4,65021,1
14568,22.234,-104.15,-27.069,0,0,0,1.9456,-0.019699,0.00085143,-0.011323,-2.7118,-0.48979,0.44492,-1.3527,-0.14728,-1,-1,-1,4,64989,1
14579,21.965,-104.6,-25.918,0,0,0,1.943,-0.023943,-0.00052267,0.44754,-2.6741,-0.40976,0.44587,-1.3531,-0.15073,-1,-1,-1,4,64989,1
14590,21.119,-105.92,-22.504,0,0,0,1.9369,-0.040696,-0.0043449,0.28543,-2.6506,-0.40273,0.44494,-1.3532,-0.14581,-1,-1,-1,4,64948,1
14619,20.818,-106.36,-21.379,0,0,0,1.9293,-0.044317,-0.0026111,0.2381,-2.6889,-0.38895,0.44391,-1.3551,-0.15319,-1,-1,-1,4,64948,1
14629,19.886,-107.62,-18.042,0,0,0,1.9285,-0.05922,-0.0064363,0.2416,-2.6341,-0.30775,0.44296,-1.3533,-0.14728,-1,-1,-1,4,64901,1
14659,19.556,-108.04,-16.936,0,0,0,1.923,-0.060201,-0.0034597,0.35978,-2.6247,-0.11506,0.4424,-1.3542,-0.15563,-1,-1,-1,4,64901,1
14669,19.216,-108.44,-15.841,0,0,0,1.9274,-0.063479,-0.00046194,0.51545,-2.6582,-0.1368,0.44292,-1.3556,-0.15467,-1,-1,-1,4,64885,1
14680,18.145,-109.6,-12.581,0,0,0,1.9235,-0.064089,0.0074919,0.47951,-2.6481,-0.015594,0.44587,-1.3531,-0.15073,-1,-1,-1,4,64885,1
14709,17.772,-109.97,-11.51,0,0,0,1.9187,-0.061744,0.011452,0.36467,-2.6355,-0.052007,0.44042,-1.3532,-0.15758,-1,-1,-1,4,64848,1
14720,16.605,-111.01,-8.328,0,0,0,1.9152,-0.056605,0.019505,0.38879,-2.6526,0.019523,0.44285,-1.3517,-0.15807,-1,-1,-1,4,64848,1
14749,16.204,-111.33,-7.279,0,0,0,1.9193,-0.05035,0.019984,0.11307,-2.6386,0.036513,0.43994,-1.3542,-0.15759,-1,-1,-1,4,64812,1
14759,14.968,-112.25,-4.1514,0,0,0,1.9231,-0.04446,0.018632,0.021247,-2.5974,-0.051221,0.4012,-1.3268,-0.12429,-1,-1,-1,4,64812,1
14789,14.544,-112.54,-3.1112,0,0,0,1.9189,-0.044713,0.021727,0.15535,-2.6231,-0.14649,0.4414,-1.3556,-0.15957,-1,-1,-1,4,64101,1
14799,14.117,-112.82,-2.0827,0,0,0,1.9207,-0.044563,0.018226,-0.059679,-2.6317,-0.094335,0.39714,-1.3526,-0.11468,-1,-1,-1,4,64101,1
14810,12.829,-113.61,0.97227,0,0,0,1.9117,-0.042579,0.0092048,-0.064315,-2.6307,-0.098097,0.43942,-1.3518,-0.15757,-1,-1,-1,4,64734,1
14839,12.396,-113.86,1.9883,0,0,0,1.9096,-0.045886,0.0024217,-0.14103,-2.6181,-0.048343,0.43983,-1.3526,-0.1674,-1,-1,-1,4,64734,1
14850,11.096,-114.55,5.0255,0,0,0,1.9081,-0.041801,-0.016262,0.027584,-2.5883,-0.13079,0.43495,-1.3509,-0.16295,-1,-1,-1,4,64690,1
14879,10.66,-114.77,6.0289,0,0,0,1.91,-0.043646,-0.01699,0.027581,-2.5701,-0.14679,0.43644,-1.3543,-0.16445,-1,-1,-1,4,64690,1
14889,9.3371,-115.36,9.032,0,0,0,1.9074,-0.045065,-0.028812,0.080663,-2.5572,-0.23568,0.43594,-1.3552,-0.16642,-1,-1,-1,4,64656,1
14919,8.8908,-115.55,10.025,0,0,0,1.9061,-0.047108,-0.027662,0.12895,-2.5461,-0.088413,0.43248,-1.3543,-0.16886,-1,-1,-1,4,64656,1
14929,7.5489,-116.07,12.993,0,0,0,1.8993,-0.053603,-0.038122,0.16545,-2.5453,-0.016475,0.43199,-1.3515,-0.1649,-1,-1,-1,4,64614,1
14958,7.0982,-116.23,13.974,0,0,0,1.9031,-0.056935,-0.039025,0.46318,-2.5393,0.18552,0.4315,-1.3549,-0.16886,-1,-1,-1,4,64614,1
14969,6.6411,-116.38,14.955,0,0,0,1.8982,-0.061934,-0.034884,0.083322,-2.5502,0.20859,0.4315,-1.3539,-0.16836,-1,-1,-1,4,64595,1
14980,5.2458,-116.77,17.871,0,0,0,1.8919,-0.045553,-0.02658,0.32036,-2.5582,0.27311,0.42958,-1.3535,-0.16344,-1,-1,-1,4,64595,1
15009,4.7794,-116.87,18.834,0,0,0,1.8928,-0.036383,-0.028519,0.18926,-2.5416,0.29276,0.42653,-1.3506,-0.17175,-1,-1,-1,4,64558,1
15019,3.3841,-117.11,21.703,0,0,0,1.8699,-0.026878,-0.028053,0.42176,-2.5199,0.12916,0.42364,-1.3536,-0.1698,-1,-1,-1,4,64558,1
15049,2.9193,-117.18,22.649,0,0,0,1.876,-0.020729,-0.030422,0.17713,-2.4994,0.10733,0.42413,-1.356,-0.17179,-1,-1,-1,4,64522,1
15059,2.451,-117.23,23.606,0,0,0,1.8764,-0.023529,-0.031218,0.27302,-2.4773,0.096618,0.42953,-1.3544,-0.16983,-1,-1,-1,4,64522,1
15070,1.0428,-117.35,26.444,0,0,0,1.8679,-0.013817,-0.0229,0.58531,-2.5057,0.11929,0.42167,-1.3532,-0.17028,-1,-1,-1,4,64472,1
15099,0.56718,-117.36,27.385,0,0,0,1.8639,-0.0078523,-0.021096,0.33302,-2.5138,0.30733,0.42164,-1.3541,-0.17373,-1,-1,-1,4,64472,1
15110,-0.86268,-117.35,30.202,0,0,0,1.8619,0.0012379,-0.00969,0.58504,-2.4734,0.16311,0.42265,-1.3532,-0.1693,-1,-1,-1,4,64445,1
15139,-1.3444,-117.33,31.138,0,0,0,1.8641,0.0051387,-0.0069843,0.51058,-2.493,0.1558,0.41922,-1.3552,-0.17225,-1,-1,-1,4,64445,1
15149,-2.7898,-117.2,33.946,0,0,0,1.8618,0.012264,0.0029022,0.70711,-2.4918,0.30707,0.41921,-1.3557,-0.17324,-1,-1,-1,4,64404,1
15179,-3.2771,-117.14,34.882,0,0,0,1.8614,0.019828,0.0097584,0.54791,-2.4794,0.32075,0.41474,-1.3538,-0.17763,-1,-1,-1,4,64404,1
15189,-4.7294,-116.87,37.661,0,0,0,1.8458,0.042431,0.021987,0.87682,-2.4815,0.13231,0.41631,-1.3563,-0.16881,-1,-1,-1,4,64366,1
15218,-5.2111,-116.75,38.581,0,0,0,1.8359,0.048153,0.026494,0.65966,-2.4807,0.18521,0.4157,-1.3528,-0.17861,-1,-1,-1,4,64366,1
15229,-5.692,-116.64,39.495,0,0,0,1.83,0.048929,0.034593,0.86255,-2.4635,-0.025586,0.41033,-1.3539,-0.17712,-1,-1,-1,4,64345,1
15240,-7.148,-116.23,42.232,0,0,0,1.8217,0.054858,0.056372,0.48944,-2.4503,0.087469,0.41469,-1.3518,-0.18056,-1,-1,-1,4,64345,1
15269,-7.6345,-116.08,43.147,0,0,0,1.8177,0.053233,0.060684,0.54656,-2.4077,-0.058387,0.41076,-1.3539,-0.18351,-1,-1,-1,4,64315,1
15279,-9.0712,-115.57,45.903,0,0,0,1.8197,0.060491,0.061901,0.54178,-2.3843,-0.1125,0.41176,-1.3534,-0.18154,-1,-1,-1,4,64315,1
15309,-9.5454,-115.39,46.824,0,0,0,1.8076,0.060734,0.06807,0.39845,-2.426,-0.10507,0.40976,-1.3524,-0.18398,-1,-1,-1,4,64277,1
15319,-10.017,-115.19,47.744,0,0,0,1.8176,0.061222,0.06482,0.54788,-2.4236,-0.17621,0.40874,-1.3514,-0.1879,-1,-1,-1,4,64277,1
15330,-11.412,-114.57,50.532,0,0,0,1.8086,0.057358,0.070335,0.60163,-2.4198,-0.28199,0.41025,-1.3524,-0.18497,-1,-1,-1,4,64237,1
15359,-11.873,-114.35,51.464,0,0,0,1.8121,0.054573,0.072568,0.4036,-2.3608,-0.26099,0.41074,-1.3524,-0.18497,-1,-1,-1,4,64237,1
15370,-13.237,-113.64,54.294,0,0,0,1.8135,0.049908,0.074925,0.35466,-2.3456,-0.39541,0.40827,-1.3515,-0.18593,-1,-1,-1,4,64202,1
15399,-13.685,-113.4,55.245,0,0,0,1.8135,0.044083,0.074457,0.37057,-2.3362,-0.43289,0.40825,-1.3529,-0.18987,-1,-1,-1,4,64202,1
15409,-15.004,-112.62,58.128,0,0,0,1.8183,0.03084,0.0739,0.16219,-2.3728,-0.65408,0.40485,-1.3555,-0.1889,-1,-1,-1,4,64162,1
15439,-15.438,-112.36,59.102,0,0,0,1.829,0.024389,0.076321,0.16,-2.3326,-0.57722,0.40579,-1.3554,-0.19283,-1,-1,-1,4,64162,1
15449,-15.871,-112.08,60.089,0,0,0,1.8328,0.015087,0.07336,0.19926,-2.3169,-0.67025,0.40526,-1.352,-0.19378,-1,-1,-1,4,64145,1
15460,-17.111,-111.26,63.068,0,0,0,1.8324,-0.017033,0.061873,0.27679,-2.3167,-0.67251,0.40289,-1.3546,-0.18692,-1,-1,-1,4,64145,1
15489,-17.516,-110.98,64.068,0,0,0,1.831,-0.02459,0.063917,0.36077,-2.2916,-0.66546,0.40579,-1.3549,-0.19234,-1,-1,-1,4,64115,1
15500,-18.706,-110.12,67.095,0,0,0,1.8343,-0.050278,0.063353,0.47123,-2.2771,-0.70495,0.40583,-1.354,-0.18742,-1,-1,-1,4,64115,1
15529,-19.093,-109.83,68.114,0,0,0,1.8334,-0.057656,0.063851,0.047423,-2.269,-0.55173,0.40085,-1.3526,-0.19377,-1,-1,-1,4,64073,1
15539,-20.224,-108.92,71.21,0,0,0,1.8382,-0.077915,0.066452,0.19148,-2.2513,-0.4108,0.40194,-1.3551,-0.18496,-1,-1,-1,4,64073,1
15569,-20.594,-108.6,72.252,0,0,0,1.848,-0.081803,0.063059,0.11351,-2.2187,-0.37763,0.39647,-1.3537,-0.19131,-1,-1,-1,4,64039,1
15579,-20.957,-108.28,73.305,0,0,0,1.8429,-0.088328,0.064841,0.32395,-2.2503,-0.40417,0.39699,-1.3552,-0.18985,-1,-1,-1,4,64039,1
15590,-22.009,-107.28,76.47,0,0,0,1.8382,-0.096668,0.060885,0.34165,-2.2259,-0.089961,0.39846,-1.3518,-0.1859,-1,-1,-1,4,63996,1
15619,-22.345,-106.94,77.527,0,0,0,1.8304,-0.095731,0.066014,0.35191,-2.2119,-0.039476,0.39993,-1.3512,-0.18541,-1,-1,-1,4,63996,1
15630,-23.328,-105.85,80.712,0,0,0,1.8241,-0.086,0.068187,0.3728,-2.2056,-0.011373,0.39708,-1.3543,-0.17904,-1,-1,-1,4,63963,1
15659,-23.642,-105.46,81.784,0,0,0,1.8226,-0.083852,0.072439,0.38321,-2.2151,0.020971,0.39752,-1.3557,-0.18593,-1,-1,-1,4,63963,1
15669,-24.559,-104.27,85.012,0,0,0,1.8117,-0.073874,0.079706,0.26448,-2.161,0.051377,0.3966,-1.3558,-0.17954,-1,-1,-1,4,63935,1
15699,-24.848,-103.85,86.095,0,0,0,1.8179,-0.073568,0.07459,0.24112,-2.1502,-0.18643,0.3956,-1.3534,-0.17853,-1,-1,-1,4,63935,1
15709,-25.683,-102.56,89.387,0,0,0,1.8141,-0.065906,0.082379,0.17725,-2.1752,-0.05077,0.39713,-1.3554,-0.17414,-1,-1,-1,4,63900,1
15739,-25.946,-102.11,90.488,0,0,0,1.8118,-0.063687,0.085258,0.46437,-2.1482,0.062314,0.39659,-1.3558,-0.18052,-1,-1,-1,4,63900,1
15749,-26.203,-101.66,91.589,0,0,0,1.8043,-0.060567,0.087023,0.35492,-2.1507,0.055624,0.39606,-1.3534,-0.18148,-1,-1,-1,4,63882,1
15760,-26.923,-100.25,94.92,0,0,0,1.802,-0.050094,0.088627,0.48944,-2.1514,0.022572,0.39905,-1.3533,-0.17609,-1,-1,-1,4,63882,1
15789,-27.148,-99.761,96.039,0,0,0,1.8033,-0.044109,0.090123,0.32108,-2.1719,0.14147,0.39804,-1.3533,-0.18002,-1,-1,-1,4,63840,1
15799,-27.775,-98.243,99.439,0,0,0,1.8082,-0.032938,0.094366,0.55085,-2.1377,0.10778,0.39763,-1.3554,-0.17316,-1,-1,-1,4,63840,1
15829,-27.97,-97.724,100.58,0,0,0,1.8068,-0.031043,0.094354,0.59633,-2.1365,0.18771,0.39368,-1.3545,-0.1751,-1,-1,-1,4,63813,1
15839,-28.508,-96.142,103.97,0,0,0,1.7905,-0.019246,0.1103,0.53234,-2.1593,0.29865,0.39571,-1.354,-0.16626,-1,-1,-1,4,63813,1
15869,-28.675,-95.599,105.12,0,0,0,1.7926,-0.011804,0.11,0.39613,-2.1389,0.40004,0.39565,-1.3544,-0.17363,-1,-1,-1,4,63769,1
15879,-28.828,-95.044,106.26,0,0,0,1.7915,-0.0069505,0.11114,0.46204,-2.1296,0.38187,0.39465,-1.3544,-0.17657,-1,-1,-1,4,63769,1
15890,-29.248,-93.325,109.7,0,0,0,1.7788,0.029439,0.12367,0.23178,-2.1671,0.44108,0.39714,-1.3544,-0.17216,-1,-1,-1,4,63735,1
15919,-29.369,-92.734,110.84,0,0,0,1.7683,0.042477,0.12176,0.094461,-2.1034,0.14248,0.3971,-1.3549,-0.17659,-1,-1,-1,4,63735,1
15929,-29.643,-90.911,114.33,0,0,0,1.7825,0.053724,0.10878,0.081026,-2.0503,0.025878,0.39864,-1.3559,-0.17022,-1,-1,-1,4,63712,1
15959,-29.704,-90.301,115.49,0,0,0,1.7869,0.057761,0.099261,0.10434,-2.059,-0.032881,0.39612,-1.3568,-0.17906,-1,-1,-1,4,63712,1
15969,-29.812,-88.457,118.98,0,0,0,1.7823,0.062987,0.088825,0.17436,-2.0513,-0.072042,0.39813,-1.3563,-0.17366,-1,-1,-1,4,63669,1
15999,-29.821,-87.838,120.14,0,0,0,1.781,0.061072,0.086336,0.30118,-2.0661,-0.10502,0.39413,-1.3539,-0.17902,-1,-1,-1,4,63669,1
16009,-29.822,-87.227,121.31,0,0,0,1.7748,0.058477,0.08637,0.33961,-2.0425,0.020409,0.39711,-1.3573,-0.17808,-1,-1,-1,4,63649,1
16020,-29.758,-85.394,124.78,0,0,0,1.7705,0.058769,0.083757,0.32634,-2.0711,-0.0036144,0.40052,-1.3528,-0.17658,-1,-1,-1,4,63649,1
16049,-29.716,-84.787,125.93,0,0,0,1.7702,0.061504,0.083386,0.32703,-2.0597,0.083348,0.39562,-1.3558,-0.17954,-1,-1,-1,4,63615,1
16059,-29.521,-82.984,129.37,0,0,0,1.7595,0.061923,0.079071,0.33298,-2.0423,0.090316,0.39465,-1.3544,-0.17608,-1,-1,-1,4,63615,1
16089,-29.436,-82.384,130.51,0,0,0,1.75,0.064102,0.081692,0.4365,-2.0321,-0.00978,0.39756,-1.3543,-0.18002,-1,-1,-1,4,63583,1
16099,-29.116,-80.608,133.9,0,0,0,1.7447,0.065191,0.079146,0.33032,-2.0183,0.025499,0.39563,-1.3544,-0.17609,-1,-1,-1,4,63583,1
16129,-28.99,-80.024,135.02,0,0,0,1.7473,0.066337,0.076054,0.10153,-1.9929,-0.10562,0.39504,-1.3514,-0.18392,-1,-1,-1,4,63551,1
16139,-28.536,-78.295,138.37,0,0,0,1.7434,0.064365,0.067688,0.24444,-2.0133,-0.18544,0.39557,-1.3524,-0.18049,-1,-1,-1,4,63551,1
16168,-28.361,-77.732,139.47,0,0,0,1.7447,0.061848,0.06694,0.30501,-1.9853,-0.18123,0.39112,-1.3554,-0.18836,-1,-1,-1,4,63518,1
16179,-28.18,-77.175,140.58,0,0,0,1.7418,0.05959,0.067764,0.21841,-1.9868,-0.16391,0.39015,-1.3545,-0.18589,-1,-1,-1,4,63518,1
16189,-27.569,-75.545,143.86,0,0,0,1.7429,0.054076,0.060339,0.38891,-1.957,-0.20668,0.39212,-1.352,-0.18195,-1,-1,-1,4,63478,1
16219,-27.345,-75.015,144.95,0,0,0,1.7429,0.049902,0.060729,0.36956,-1.9706,-0.23472,0.39114,-1.355,-0.18541,-1,-1,-1,4,63478,1
16229,-26.633,-73.48,148.16,0,0,0,1.7312,0.041904,0.060321,0.45048,-1.9667,-0.3037,0.38922,-1.3551,-0.18098,-1,-1,-1,4,63449,1
16258,-26.381,-72.988,149.22,0,0,0,1.7298,0.036364,0.064543,0.5474,-1.941,-0.23049,0.3896,-1.3525,-0.1898,-1,-1,-1,4,63449,1
16269,-26.126,-72.504,150.28,0,0,0,1.7308,0.031776,0.068933,0.48305,-1.9658,-0.26651,0.38671,-1.3551,-0.18686,-1,-1,-1,4,63436,1
16280,-25.323,-71.102,153.43,0,0,0,1.7309,0.022674,0.07794,0.44713,-1.9166,-0.18416,0.38934,-1.3484,-0.1598,-1,-1,-1,4,63436,1
16309,-25.042,-70.647,154.47,0,0,0,1.7305,0.0208,0.081286,0.50496,-1.932,-0.20352,0.38483,-1.2931,-0.16175,-1,-1,-1,4,63401,1
16319,-24.162,-69.339,157.57,0,0,0,1.728,0.0098964,0.087537,0.35737,-1.9334,-0.0574,0.38872,-1.3531,-0.17949,-1,-1,-1,4,63401,1
16349,-23.858,-68.917,158.59,0,0,0,1.731,0.010704,0.089168,0.42103,-1.9273,-0.10383,0.3966,-1.3942,-0.16809,-1,-1,-1,4,63368,1
16359,-22.911,-67.695,161.61,0,0,0,1.7205,0.015692,0.092443,0.32828,-1.9511,-0.10973,0.39117,-1.3535,-0.17999,-1,-1,-1,4,63368,1
16389,-22.584,-67.297,162.61,0,0,0,1.7189,0.014104,0.0925,0.29715,-1.9006,-0.20218,0.3848,-1.3537,-0.18046,-1,-1,-1,4,63352,1
16399,-22.249,-66.91,163.6,0,0,0,1.7226,0.015217,0.093421,0.21677,-1.9142,-0.10533,0.38678,-1.3551,-0.17999,-1,-1,-1,4,63352,1
16410,-21.208,-65.796,166.55,0,0,0,1.7177,0.0096665,0.092407,0.27548,-1.9115,-0.076929,0.38971,-1.3521,-0.17752,-1,-1,-1,4,63304,1
16439,-20.851,-65.444,167.53,0,0,0,1.7186,0.0069261,0.093686,0.30629,-1.9062,-0.071628,0.39151,-1.3204,-0.15907,-1,-1,-1,4,63304,1
16449,-19.759,-64.433,170.4,0,0,0,1.7026,0.0076228,0.094609,0.12754,-1.8681,0.01163,0.38583,-1.3547,-0.17556,-1,-1,-1,4,63274,1
16479,-19.386,-64.112,171.34,0,0,0,1.6978,0.0097351,0.09294,0.32471,-1.895,-0.032916,0.38342,-1.3966,-0.16413,-1,-1,-1,4,63274,1
16489,-18.237,-63.187,174.13,0,0,0,1.6943,0.013294,0.08873,0.20736,-1.8407,-0.0057606,0.38531,-1.3528,-0.17701,-1,-1,-1,4,63249,1
16519,-17.842,-62.892,175.05,0,0,0,1.6902,0.014491,0.087242,0.2595,-1.8267,-0.14172,0.38532,-1.3572,-0.18049,-1,-1,-1,4,63249,1
16529,-17.444,-62.607,175.97,0,0,0,1.6868,0.014048,0.086102,0.0017472,-1.8575,0.0082113,0.38436,-1.3553,-0.17654,-1,-1,-1,4,63223,1
16540,-16.218,-61.791,178.67,0,0,0,1.6795,0.017752,0.081347,0.20331,-1.8403,-0.038593,0.38481,-1.3518,-0.177,-1,-1,-1,4,63223,1
16569,-15.803,-61.534,179.56,0,0,0,1.676,0.018933,0.076447,-0.011043,-1.8479,0.1789,0.38152,-1.3555,-0.16524,-1,-1,-1,4,63186,1
16579,-14.522,-60.806,-177.81,0,0,0,1.6657,0.022637,0.066649,0.13406,-1.8609,-0.073886,0.38777,-1.3517,-0.17456,-1,-1,-1,4,63186,1
16609,-14.084,-60.574,-176.95,0,0,0,1.6708,0.031455,0.05816,0.17419,-1.8328,-0.031714,0.38228,-1.3761,-0.15854,-1,-1,-1,4,63161,1
16619,-12.742,-59.921,-174.36,0,0,0,1.6651,0.023495,0.054946,0.33991,-1.815,-0.24263,0.38388,-1.3538,-0.17309,-1,-1,-1,4,63161,1
16649,-12.293,-59.73,-173.51,0,0,0,1.6627,0.01878,0.055883,0.14043,-1.7944,-0.35434,0.38187,-1.3538,-0.17897,-1,-1,-1,4,63124,1
16659,-11.84,-59.547,-172.67,0,0,0,1.6604,0.015174,0.05214,0.19334,-1.8157,-0.21629,0.38138,-1.3543,-0.17947,-1,-1,-1,4,63124,1
16670,-10.467,-59.053,-170.15,0,0,0,1.6588,0.0058827,0.052606,0.13923,-1.8127,-0.13467,0.38339,-1.3538,-0.17358,-1,-1,-1,4,63097,1
16699,-10.003,-58.904,-169.31,0,0,0,1.659,0.0013916,0.05166,0.1931,-1.7823,-0.18485,0.38235,-1.3378,-0.16115,-1,-1,-1,4,63097,1
16709,-8.6102,-58.527,-166.84,0,0,0,1.6419,-0.0096022,0.051487,0.015954,-1.7656,0.099277,0.38044,-1.3525,-0.17257,-1,-1,-1,4,63068,1
16739,-8.1461,-58.412,-166.03,0,0,0,1.6445,-0.0065072,0.051824,0.099472,-1.8176,-0.050119,0.3919,-1.3552,-0.15594,-1,-1,-1,4,63068,1
16749,-6.7326,-58.097,-163.6,0,0,0,1.6353,-0.00035633,0.041577,-0.046609,-1.7875,0.040067,0.37805,-1.3536,-0.16668,-1,-1,-1,4,63034,1
16779,-6.2534,-58.006,-162.79,0,0,0,1.639,-0.0011167,0.037227,-0.019266,-1.7331,-0.021251,0.37851,-1.356,-0.17309,-1,-1,-1,4,63034,1
16789,-5.7686,-57.924,-161.99,0,0,0,1.6383,-0.0030807,0.031381,-0.021449,-1.7803,0.076912,0.37746,-1.3511,-0.175,-1,-1,-1,4,63024,1
16800,-4.3067,-57.704,-159.6,0,0,0,1.6317,0.0064132,0.019749,0.036397,-1.7417,0.057928,0.37703,-1.355,-0.17258,-1,-1,-1,4,63024,1
16829,-3.8136,-57.642,-158.82,0,0,0,1.6316,0.0093755,0.015728,-0.08878,-1.7744,0.1618,0.37556,-1.3546,-0.17257,-1,-1,-1,4,62988,1
16840,-2.3265,-57.491,-156.48,0,0,0,1.6218,0.013936,0.0050942,-0.013202,-1.7282,0.071844,0.3308,-1.3214,-0.14804,-1,-1,-1,4,62988,1
16869,-1.8284,-57.451,-155.71,0,0,0,1.6201,0.018023,8.92E-05,-0.021342,-1.7182,0.19221,0.37404,-1.3526,-0.1755,-1,-1,-1,4,62481,1
16879,-0.30869,-57.365,-153.38,0,0,0,1.6303,0.024799,-0.01011,-0.087905,-1.7378,0.15647,0.36964,-1.3513,-0.17203,-1,-1,-1,4,62481,1
16909,0.20373,-57.348,-152.61,0,0,0,1.6303,0.024164,-0.015374,-0.099326,-1.7048,0.082014,0.37111,-1.3557,-0.17748,-1,-1,-1,4,62926,1
16919,1.7615,-57.337,-150.3,0,0,0,1.631,0.030396,-0.034921,-0.0060387,-1.7041,0.16998,0.37067,-1.3533,-0.16959,-1,-1,-1,4,62926,1
16948,2.2875,-57.343,-149.53,0,0,0,1.6292,0.03152,-0.039223,-0.01058,-1.6806,0.18277,0.36719,-1.3538,-0.1745,-1,-1,-1,4,62897,1
16959,2.812,-57.358,-148.76,0,0,0,1.635,0.032381,-0.039077,0.090281,-1.6845,0.092639,0.36816,-1.3543,-0.17647,-1,-1,-1,4,62897,1
16970,4.3886,-57.434,-146.46,0,0,0,1.6251,0.037844,-0.046179,0.072766,-1.6758,0.12632,0.36678,-1.3535,-0.16516,-1,-1,-1,4,62861,1
16999,4.9113,-57.475,-145.7,0,0,0,1.6269,0.036237,-0.051645,-0.08259,-1.68,0.12063,0.3618,-1.3521,-0.17201,-1,-1,-1,4,62861,1
17009,6.4865,-57.624,-143.42,0,0,0,1.616,0.044561,-0.058429,0.0016025,-1.8078,0.048797,0.3628,-1.3492,-0.16707,-1,-1,-1,4,62835,1
17039,7.0097,-57.687,-142.67,0,0,0,1.6143,0.043753,-0.060381,0.11324,-1.6689,0.19238,0.36134,-1.3536,-0.17054,-1,-1,-1,4,62835,1
17049,8.5779,-57.916,-140.39,0,0,0,1.6063,0.043847,-0.06769,0.1663,-1.6138,0.062462,0.36139,-1.3522,-0.16366,-1,-1,-1,4,62803,1
17078,9.0975,-58.006,-139.64,0,0,0,1.6068,0.046734,-0.067281,0.27612,-1.6267,0.068866,0.3584,-1.3522,-0.16856,-1,-1,-1,4,62803,1
17089,9.6173,-58.103,-138.87,0,0,0,1.608,0.04272,-0.068869,0.2157,-1.6039,0.12686,0.35496,-1.3514,-0.16804,-1,-1,-1,4,62788,1
17100,11.161,-58.438,-136.59,0,0,0,1.5967,0.042572,-0.06602,0.33284,-1.6138,0.15138,0.356,-1.3504,-0.16067,-1,-1,-1,4,62788,1
17129,11.665,-58.565,-135.82,0,0,0,1.5937,0.043911,-0.065466,0.31843,-1.6402,0.1888,0.35309,-1.3578,-0.16564,-1,-1,-1,4,62764,1
17139,13.157,-58.972,-133.52,0,0,0,1.5807,0.049897,-0.055876,0.43696,-1.6405,0.29315,0.35068,-1.3531,-0.15576,-1,-1,-1,4,62764,1
17169,13.644,-59.12,-132.75,0,0,0,1.5781,0.050144,-0.054744,0.40122,-1.6759,0.20355,0.35104,-1.3505,-0.16655,-1,-1,-1,4,62739,1
17179,15.078,-59.597,-130.43,0,0,0,1.5676,0.061732,-0.040256,0.3256,-1.6833,0.33398,0.35212,-1.353,-0.15871,-1,-1,-1,4,62739,1
17208,15.542,-59.762,-129.65,0,0,0,1.5626,0.064018,-0.036594,0.43608,-1.6564,0.18527,0.34717,-1.3517,-0.16212,-1,-1,-1,4,62706,1
17219,16.005,-59.933,-128.86,0,0,0,1.5653,0.071101,-0.03192,0.34514,-1.6335,0.048249,0.34719,-1.3522,-0.16065,-1,-1,-1,4,62706,1
17230,17.381,-60.475,-126.5,0,0,0,1.5563,0.077537,-0.031607,0.48705,-1.6278,-0.13489,0.34674,-1.3508,-0.15425,-1,-1,-1,4,62678,1
17259,17.828,-60.671,-125.7,0,0,0,1.5495,0.074482,-0.028622,0.30681,-1.6521,-0.033708,0.34523,-1.3513,-0.16015,-1,-1,-1,4,62678,1
17269,19.142,-61.308,-123.3,0,0,0,1.5476,0.072264,-0.02048,0.47198,-1.6212,-0.13905,0.34529,-1.3513,-0.15327,-1,-1,-1,4,62653,1
17299,19.575,-61.538,-122.5,0,0,0,1.5416,0.067323,-0.019028,0.40863,-1.6235,-0.18887,0.34674,-1.3546,-0.15969,-1,-1,-1,4,62653,1
17309,20.83,-62.284,-120.05,0,0,0,1.5355,0.054591,-0.0086379,0.60063,-1.6217,-0.22098,0.34431,-1.3518,-0.15376,-1,-1,-1,4,62617,1
17338,21.237,-62.556,-119.23,0,0,0,1.5413,0.047368,-0.0030879,0.57649,-1.591,-0.24896,0.34328,-1.3489,-0.1557,-1,-1,-1,4,62617,1
17349,21.637,-62.84,-118.39,0,0,0,1.5383,0.044269,0.0039516,0.56771,-1.6044,-0.30722,0.34285,-1.3514,-0.15179,-1,-1,-1,4,62603,1
17360,22.788,-63.739,-115.86,0,0,0,1.531,0.030996,0.021098,0.48625,-1.5902,-0.34505,0.34678,-1.3498,-0.14884,-1,-1,-1,4,62603,1
17389,23.158,-64.06,-115.01,0,0,0,1.5345,0.027063,0.022708,0.56602,-1.5802,-0.19465,0.34239,-1.3529,-0.14984,-1,-1,-1,4,62575,1
17399,24.228,-65.074,-112.41,0,0,0,1.5385,0.017734,0.040425,0.42104,-1.5806,-0.21319,0.34146,-1.3516,-0.14245,-1,-1,-1,4,62575,1
17429,24.573,-65.431,-111.53,0,0,0,1.5374,0.015881,0.043213,0.6287,-1.5635,0.011504,0.34188,-1.3505,-0.14932,-1,-1,-1,4,62553,1
17439,25.567,-66.556,-108.83,0,0,0,1.5527,0.0095398,0.055934,0.58604,-1.5982,0.081031,0.34636,-1.3485,-0.13901,-1,-1,-1,4,62553,1
17468,25.883,-66.947,-107.92,0,0,0,1.5469,0.0097089,0.063287,0.40625,-1.5615,0.019058,0.34438,-1.3534,-0.14739,-1,-1,-1,4,62521,1
17479,26.19,-67.34,-107.01,0,0,0,1.5486,0.013724,0.061987,0.34699,-1.58,-0.060986,0.34438,-1.3524,-0.14591,-1,-1,-1,4,62521,1
17490,27.075,-68.551,-104.24,0,0,0,1.5457,0.017543,0.072393,0.2575,-1.5785,0.087699,0.34446,-1.3505,-0.13558,-1,-1,-1,4,62501,1
17519,27.359,-68.97,-103.3,0,0,0,1.5521,0.017118,0.070538,0.23955,-1.5518,-0.11786,0.3454,-1.3534,-0.14248,-1,-1,-1,4,62501,1
17529,28.167,-70.254,-100.47,0,0,0,1.5441,0.02186,0.075266,0.24793,-1.5375,0.01407,0.34845,-1.3549,-0.1322,-1,-1,-1,4,62457,1
17559,28.422,-70.69,-99.521,0,0,0,1.5423,0.022522,0.075793,0.27941,-1.5451,0.0035533,0.34687,-1.3499,-0.13902,-1,-1,-1,4,62457,1
17569,29.14,-72.01,-96.66,0,0,0,1.5348,0.031468,0.07645,0.13137,-1.5166,-0.0078825,0.34889,-1.3495,-0.13215,-1,-1,-1,4,62427,1
17598,29.37,-72.464,-95.695,0,0,0,1.5376,0.03251,0.075787,0.24031,-1.5382,0.2007,0.35086,-1.3538,-0.13563,-1,-1,-1,4,62427,1
17609,29.591,-72.918,-94.726,0,0,0,1.5341,0.039175,0.076942,0.23772,-1.5393,0.20154,0.34987,-1.3519,-0.13463,-1,-1,-1,4,62419,1
17620,30.218,-74.295,-91.811,0,0,0,1.5318,0.045248,0.071374,0.11032,-1.5084,0.16889,0.3519,-1.3533,-0.12876,-1,-1,-1,4,62419,1
17649,30.415,-74.758,-90.833,0,0,0,1.53,0.050632,0.070961,0.080873,-1.5091,0.068474,0.35038,-1.3504,-0.13069,-1,-1,-1,4,62390,1
17659,30.972,-76.166,-87.89,0,0,0,1.5247,0.054782,0.06274,-0.034286,-1.4821,0.063518,0.35338,-1.3523,-0.1263,-1,-1,-1,4,62390,1
17689,31.15,-76.642,-86.904,0,0,0,1.5255,0.056688,0.056237,-0.039889,-1.499,0.055483,0.35235,-1.3513,-0.1312,-1,-1,-1,4,62373,1
17699,31.659,-78.093,-83.931,0,0,0,1.522,0.058182,0.041864,-0.17387,-1.4808,0.034314,0.35828,-1.3512,-0.12631,-1,-1,-1,4,62373,1
